AccelX,AccelY,AccelZ,GyroX,GyroY,GyroZ,MPUTempC,BaroTempC,PressurePa,RelAltM,Us
92,-77,2128,-168,16,-36,38.601,36.100,100626,-940.63,11168
75,-79,2120,-167,15,-34,38.665,36.100,100626,-940.63,492
94,-81,2116,-168,16,-35,38.589,36.100,100626,-940.63,476
81,-71,2132,-167,18,-36,38.639,36.100,100626,-940.63,471
85,-75,2127,-169,18,-36,38.642,36.000,100617,-939.86,11176
78,-54,2112,-169,19,-34,38.642,36.000,100617,-939.86,505
72,-72,2121,-168,19,-29,38.606,36.000,100617,-939.86,481
55,-84,2120,-168,16,-28,38.612,36.000,100617,-939.86,477
77,-75,2124,-171,23,-29,38.589,36.000,100617,-939.86,474
75,-85,2096,-171,13,-28,38.624,36.000,100614,-939.60,11173
81,-83,2150,-172,16,-24,38.609,36.000,100614,-939.60,499
80,-89,2131,-168,20,-32,38.604,36.000,100614,-939.60,483
68,-94,2132,-172,20,-28,38.604,36.000,100614,-939.60,477
67,-85,2151,-171,21,-28,38.606,36.000,100614,-939.60,473
74,-90,2139,-172,19,-31,38.615,36.000,100617,-939.86,11177
77,-86,2133,-169,17,-31,38.592,36.000,100617,-939.86,516
75,-77,2135,-171,19,-34,38.612,36.000,100617,-939.86,484
68,-62,2137,-170,19,-30,38.624,36.000,100617,-939.86,477
70,-74,2140,-169,19,-31,38.627,36.000,100617,-939.86,473
66,-81,2145,-166,15,-33,38.636,36.000,100629,-940.88,11173
66,-75,2132,-168,18,-33,38.589,36.000,100629,-940.88,495
83,-72,2127,-168,19,-37,38.604,36.000,100629,-940.88,482
65,-67,2129,-170,16,-35,38.606,36.000,100629,-940.88,477
70,-80,2139,-171,20,-36,38.615,36.000,100629,-940.88,473
82,-76,2139,-171,19,-31,38.624,36.000,100626,-940.63,11176
83,-64,2125,-169,16,-34,38.601,36.000,100626,-940.63,518
96,-78,2130,-170,21,-36,38.601,36.000,100626,-940.63,484
73,-73,2130,-169,16,-33,38.577,36.000,100626,-940.63,477
87,-71,2119,-169,20,-29,38.624,36.000,100626,-940.63,473
87,-89,2126,-171,21,-28,38.606,36.000,100626,-940.63,11173
79,-74,2128,-173,20,-33,38.601,36.000,100626,-940.63,512
83,-72,2130,-171,19,-30,38.633,36.000,100626,-940.63,483
80,-92,2127,-170,18,-31,38.630,36.000,100626,-940.63,477
72,-105,2123,-170,19,-34,38.586,36.000,100626,-940.63,473
66,-84,2126,-173,19,-34,38.621,36.000,100617,-939.86,11177
89,-91,2132,-169,16,-32,38.618,36.000,100617,-939.86,516
78,-83,2109,-167,15,-32,38.621,36.000,100617,-939.86,484
64,-79,2129,-170,22,-36,38.592,36.000,100617,-939.86,477
65,-72,2122,-168,20,-33,38.606,36.000,100617,-939.86,473
62,-87,2160,-169,18,-30,38.624,36.000,100620,-940.12,11173
65,-74,2130,-164,18,-31,38.604,36.000,100620,-940.12,499
76,-62,2128,-168,19,-33,38.606,36.000,100620,-940.12,483
73,-82,2111,-170,21,-29,38.609,36.000,100620,-940.12,477
80,-62,2127,-170,17,-30,38.598,36.000,100620,-940.12,473
82,-70,2129,-170,22,-33,38.589,36.000,100617,-939.86,11177
73,-93,2134,-164,12,-29,38.612,36.000,100617,-939.86,516
69,-87,2138,-170,21,-32,38.615,36.000,100617,-939.86,484
62,-89,2158,-166,19,-30,38.636,36.000,100617,-939.86,477
93,-74,2100,-169,19,-39,38.592,36.000,100617,-939.86,473
71,-87,2138,-172,20,-34,38.583,36.000,100620,-940.12,11173
79,-68,2114,-164,11,-31,38.639,36.000,100620,-940.12,512
71,-75,2142,-176,30,-37,38.580,36.000,100620,-940.12,483
89,-69,2142,-164,12,-35,38.595,36.000,100620,-940.12,477
73,-77,2148,-174,25,-34,38.604,36.000,100620,-940.12,473
86,-62,2127,-160,7,-31,38.606,36.000,100617,-939.86,11176
75,-84,2134,-176,29,-33,38.604,36.000,100617,-939.86,519
73,-87,2128,-160,4,-33,38.598,36.000,100617,-939.86,484
75,-85,2124,-178,30,-30,38.601,36.000,100617,-939.86,477
84,-89,2161,-157,6,-32,38.604,36.000,100617,-939.86,473
71,-82,2119,-177,30,-30,38.606,36.000,100623,-940.37,11173
66,-86,2137,-161,10,-33,38.574,36.000,100623,-940.37,515
66,-77,2110,-175,26,-31,38.598,36.000,100623,-940.37,482
80,-86,2142,-166,12,-34,38.615,36.000,100623,-940.37,477
74,-74,2121,-174,21,-31,38.609,36.000,100623,-940.37,473
75,-98,2119,-171,19,-35,38.606,36.000,100626,-940.63,11177
88,-79,2110,-170,17,-30,38.586,36.000,100626,-940.63,501
99,-70,2135,-173,22,-29,38.618,36.000,100626,-940.63,484
70,-77,2118,-166,20,-28,38.615,36.000,100626,-940.63,477
68,-94,2150,-171,17,-31,38.621,36.000,100626,-940.63,473
72,-67,2121,-165,16,-29,38.606,36.000,100620,-940.12,11173
67,-63,2116,-169,20,-30,38.595,36.000,100620,-940.12,514
83,-70,2102,-165,15,-31,38.580,36.000,100620,-940.12,483
83,-63,2127,-172,21,-28,38.574,36.000,100620,-940.12,476
75,-64,2121,-166,15,-32,38.589,36.000,100620,-940.12,473
62,-79,2125,-167,16,-35,38.571,36.000,100626,-940.63,11177
74,-77,2128,-170,15,-30,38.592,36.000,100626,-940.63,505
65,-87,2129,-173,18,-29,38.574,36.000,100626,-940.63,484
83,-73,2165,-166,15,-28,38.606,36.000,100626,-940.63,477
73,-91,2138,-172,21,-34,38.609,36.000,100626,-940.63,473
61,-79,2144,-167,11,-32,38.615,36.000,100626,-940.63,11172
79,-86,2144,-171,21,-34,38.615,36.000,100626,-940.63,499
63,-77,2134,-168,16,-32,38.577,36.000,100626,-940.63,482
77,-76,2114,-170,18,-32,38.612,36.000,100626,-940.63,477
76,-84,2139,-166,17,-30,38.577,36.000,100626,-940.63,473
64,-88,2128,-173,19,-32,38.595,36.000,100617,-939.86,11176
79,-84,2150,-170,15,-36,38.580,36.000,100617,-939.86,517
88,-81,2130,-172,24,-31,38.606,36.000,100617,-939.86,484
85,-77,2131,-166,14,-32,38.583,36.000,100617,-939.86,477
92,-87,2133,-170,19,-36,38.583,36.000,100617,-939.86,473
76,-75,2159,-167,16,-33,38.586,36.000,100629,-940.88,11173
73,-77,2116,-173,23,-32,38.612,36.000,100629,-940.88,513
75,-61,2135,-169,19,-39,38.595,36.000,100629,-940.88,482
87,-63,2123,-169,20,-33,38.595,36.000,100629,-940.88,477
74,-66,2173,-169,25,-35,38.589,36.000,100629,-940.88,473
59,-63,2119,-168,16,-34,38.598,36.000,100626,-940.63,11177
65,-74,2142,-164,16,-29,38.589,36.000,100626,-940.63,517
97,-77,2120,-167,13,-30,38.592,36.000,100626,-940.63,484
70,-84,2126,-182,39,-34,38.595,36.000,100626,-940.63,477
84,-58,2129,-158,-1,-31,38.583,36.000,100626,-940.63,473
65,-88,2135,-178,36,-29,38.621,36.000,100632,-941.14,11173
66,-68,2118,-157,5,-32,38.592,36.000,100632,-941.14,500
71,-84,2123,-178,32,-32,38.551,36.000,100632,-941.14,482
66,-83,2141,-165,12,-30,38.598,36.000,100632,-941.14,477
82,-64,2103,-173,23,-32,38.565,36.000,100632,-941.14,473
80,-82,2137,-164,12,-31,38.583,36.000,100626,-940.63,11176
91,-81,2124,-173,25,-27,38.583,36.000,100626,-940.63,503
90,-88,2139,-165,14,-29,38.589,36.000,100626,-940.63,484
82,-74,2119,-173,21,-30,38.598,36.000,100626,-940.63,477
82,-82,2151,-170,24,-29,38.609,36.000,100626,-940.63,473
92,-83,2137,-165,15,-30,38.592,36.000,100614,-939.60,11173
78,-83,2145,-176,32,-34,38.574,36.000,100614,-939.60,499
74,-73,2123,-161,5,-35,38.589,36.000,100614,-939.60,483
78,-84,2113,-177,30,-31,38.580,36.000,100614,-939.60,477
73,-78,2136,-160,12,-30,38.559,36.000,100614,-939.60,473
89,-65,2134,-174,22,-33,38.556,36.000,100617,-939.86,11177
82,-78,2138,-168,14,-35,38.580,36.000,100617,-939.86,516
76,-71,2132,-167,18,-32,38.568,36.000,100617,-939.86,484
59,-73,2161,-173,23,-31,38.589,36.000,100617,-939.86,477
78,-72,2126,-163,9,-34,38.583,36.000,100617,-939.86,473
80,-63,2115,-173,23,-32,38.609,36.000,100617,-939.86,11172
93,-70,2126,-166,14,-37,38.562,36.000,100617,-939.86,502
74,-82,2119,-174,23,-34,38.559,36.000,100617,-939.86,482
70,-89,2116,-167,11,-35,38.586,36.000,100617,-939.86,477
80,-83,2126,-172,25,-30,38.565,36.000,100617,-939.86,473
67,-78,2135,-168,14,-33,38.601,36.000,100626,-940.63,11176
73,-73,2119,-171,29,-29,38.580,36.000,100626,-940.63,517
77,-89,2128,-165,13,-31,38.568,36.000,100626,-940.63,484
82,-73,2113,-173,24,-31,38.556,36.000,100626,-940.63,477
66,-75,2152,-167,12,-31,38.530,36.000,100626,-940.63,473
74,-93,2138,-168,19,-30,38.577,36.000,100620,-940.12,11173
73,-96,2134,-164,10,-30,38.568,36.000,100620,-940.12,513
86,-74,2117,-169,20,-29,38.595,36.000,100620,-940.12,483
73,-96,2118,-168,19,-35,38.568,36.000,100620,-940.12,477
72,-84,2122,-169,20,-34,38.568,36.000,100620,-940.12,473
70,-70,2141,-168,15,-33,38.589,36.000,100617,-939.86,11177
89,-90,2109,-169,19,-34,38.604,36.000,100617,-939.86,503
75,-74,2153,-170,22,-30,38.565,36.000,100617,-939.86,484
76,-85,2136,-164,15,-38,38.539,36.000,100617,-939.86,477
66,-75,2120,-170,14,-31,38.580,36.000,100617,-939.86,473
69,-82,2116,-170,16,-27,38.565,36.000,100620,-940.12,11172
67,-73,2103,-169,24,-33,38.592,36.000,100620,-940.12,515
70,-72,2131,-170,15,-29,38.554,36.000,100620,-940.12,483
65,-80,2141,-171,18,-30,38.595,36.000,100620,-940.12,477
78,-80,2099,-167,18,-35,38.583,36.000,100620,-940.12,473
84,-77,2131,-170,22,-29,38.565,36.000,100623,-940.37,11177
91,-74,2127,-168,16,-33,38.536,36.000,100623,-940.37,500
63,-78,2143,-170,21,-35,38.554,36.000,100623,-940.37,484
76,-83,2139,-170,15,-32,38.606,36.000,100623,-940.37,476
68,-75,2123,-171,22,-37,38.583,36.000,100623,-940.37,473
93,-71,2112,-165,15,-30,38.559,35.900,100626,-940.63,11173
81,-88,2123,-168,22,-32,38.592,35.900,100626,-940.63,514
70,-78,2119,-168,16,-30,38.604,35.900,100626,-940.63,483
81,-70,2123,-166,16,-35,38.583,35.900,100626,-940.63,477
70,-69,2117,-174,18,-31,38.545,35.900,100626,-940.63,473
78,-85,2152,-168,18,-34,38.571,35.900,100629,-940.88,11177
77,-87,2125,-170,14,-32,38.562,35.900,100629,-940.88,515
57,-75,2123,-170,23,-31,38.589,35.900,100629,-940.88,484
75,-79,2120,-160,7,-36,38.556,35.900,100629,-940.88,477
64,-96,2140,-177,32,-27,38.554,35.900,100629,-940.88,473
59,-84,2139,-157,2,-33,38.568,35.900,100623,-940.37,11172
69,-82,2139,-182,40,-32,38.577,35.900,100623,-940.37,506
49,-79,2143,-159,3,-32,38.559,35.900,100623,-940.37,483
75,-70,2104,-184,41,-32,38.533,35.900,100623,-940.37,477
58,-81,2140,-157,5,-37,38.571,35.900,100623,-940.37,473
78,-65,2104,-174,22,-33,38.577,35.900,100620,-940.12,11177
57,-78,2131,-164,9,-31,38.571,35.900,100620,-940.12,502
81,-70,2112,-171,23,-34,38.589,35.900,100620,-940.12,484
67,-93,2143,-169,17,-32,38.556,35.900,100620,-940.12,477
96,-84,2112,-166,18,-33,38.568,35.900,100620,-940.12,473
67,-85,2136,-172,17,-28,38.595,35.900,100629,-940.88,11173
91,-82,2117,-174,18,-34,38.559,35.900,100629,-940.88,515
68,-68,2139,-174,20,-28,38.577,35.900,100629,-940.88,483
82,-68,2128,-166,18,-32,38.559,35.900,100629,-940.88,477
82,-92,2133,-174,25,-36,38.545,35.900,100629,-940.88,473
91,-73,2109,-169,15,-30,38.565,35.900,100620,-940.12,11177
75,-83,2140,-172,17,-32,38.565,35.900,100620,-940.12,502
86,-86,2129,-165,13,-34,38.592,35.900,100620,-940.12,484
78,-77,2123,-174,25,-30,38.568,35.900,100620,-940.12,477
83,-92,2130,-165,15,-31,38.592,35.900,100620,-940.12,473
76,-84,2144,-170,19,-26,38.551,35.900,100623,-940.37,11173
79,-82,2130,-169,18,-28,38.586,35.900,100623,-940.37,500
62,-83,2133,-166,25,-28,38.556,35.900,100623,-940.37,483
80,-79,2122,-169,19,-30,38.565,35.900,100623,-940.37,477
71,-80,2128,-172,21,-33,38.559,35.900,100623,-940.37,473
75,-78,2150,-167,11,-32,38.574,35.900,100623,-940.37,11177
65,-87,2130,-172,27,-30,38.583,35.900,100623,-940.37,501
72,-89,2139,-166,15,-33,38.571,35.900,100623,-940.37,484
76,-74,2132,-168,22,-30,38.559,35.900,100623,-940.37,477
87,-78,2132,-167,15,-33,38.559,35.900,100623,-940.37,473
98,-76,2140,-167,16,-35,38.580,35.900,100623,-940.37,11172
80,-73,2137,-170,17,-30,38.559,35.900,100623,-940.37,496
67,-69,2122,-171,21,-36,38.598,35.900,100623,-940.37,482
87,-71,2133,-165,10,-29,38.589,35.900,100623,-940.37,477
77,-72,2138,-175,30,-32,38.586,35.900,100623,-940.37,473
76,-76,2172,-166,10,-28,38.568,35.900,100620,-940.12,11176
81,-67,2103,-176,32,-31,38.601,35.900,100620,-940.12,517
64,-70,2151,-160,3,-34,38.592,35.900,100620,-940.12,484
92,-75,2109,-178,36,-28,38.577,35.900,100620,-940.12,477
76,-81,2162,-159,7,-32,38.583,35.900,100620,-940.12,473
100,-79,2117,-175,27,-29,38.559,35.900,100626,-940.63,11173
69,-88,2145,-161,9,-35,38.574,35.900,100626,-940.63,497
79,-75,2114,-171,24,-33,38.571,35.900,100626,-940.63,483
63,-87,2152,-171,21,-34,38.559,35.900,100626,-940.63,476
88,-70,2122,-167,13,-32,38.583,35.900,100626,-940.63,473
63,-90,2130,-170,20,-30,38.592,35.900,100623,-940.37,11177
82,-83,2106,-166,14,-36,38.580,35.900,100623,-940.37,502
68,-82,2143,-170,19,-34,38.586,35.900,100623,-940.37,484
72,-80,2135,-166,14,-35,38.571,35.900,100623,-940.37,477
92,-88,2134,-174,26,-34,38.589,35.900,100623,-940.37,473
80,-83,2125,-167,8,-36,38.604,35.900,100623,-940.37,11173
85,-82,2147,-169,19,-32,38.577,35.900,100623,-940.37,498
81,-83,2145,-168,17,-31,38.589,35.900,100623,-940.37,483
85,-64,2108,-168,17,-36,38.577,35.900,100623,-940.37,477
82,-73,2119,-170,18,-34,38.595,35.900,100623,-940.37,473
82,-61,2120,-172,22,-36,38.595,35.900,100629,-940.88,11177
81,-61,2124,-168,11,-30,38.606,35.900,100629,-940.88,518
83,-76,2128,-174,26,-32,38.577,35.900,100629,-940.88,484
64,-64,2138,-164,16,-32,38.592,35.900,100629,-940.88,477
76,-64,2134,-173,27,-31,38.574,35.900,100629,-940.88,473
90,-84,2117,-168,16,-30,38.577,35.900,100629,-940.88,11173
76,-84,2103,-173,25,-32,38.571,35.900,100629,-940.88,515
81,-79,2142,-165,11,-29,38.562,35.900,100629,-940.88,483
66,-94,2137,-173,22,-31,38.559,35.900,100629,-940.88,477
67,-77,2129,-167,14,-28,38.601,35.900,100629,-940.88,473
72,-79,2115,-171,20,-35,38.624,35.900,100635,-941.40,11177
71,-93,2139,-166,11,-24,38.606,35.900,100635,-941.40,516
72,-70,2127,-170,21,-31,38.583,35.900,100635,-941.40,484
64,-85,2129,-166,18,-33,38.580,35.900,100635,-941.40,477
82,-79,2126,-173,22,-31,38.586,35.900,100635,-941.40,473
80,-84,2151,-163,12,-34,38.586,35.900,100635,-941.40,11173
85,-76,2116,-171,23,-36,38.589,35.900,100635,-941.40,514
66,-74,2139,-168,13,-34,38.554,35.900,100635,-941.40,482
89,-60,2148,-170,18,-35,38.568,35.900,100635,-941.40,477
74,-85,2113,-170,15,-33,38.571,35.900,100635,-941.40,473
91,-62,2140,-170,17,-31,38.565,35.900,100629,-940.88,11177
81,-70,2117,-166,18,-31,38.589,35.900,100629,-940.88,501
93,-70,2136,-170,16,-30,38.589,35.900,100629,-940.88,484
75,-69,2149,-171,21,-32,38.583,35.900,100629,-940.88,477
91,-82,2135,-168,16,-33,38.568,35.900,100629,-940.88,473
78,-88,2132,-171,24,-32,38.577,35.900,100626,-940.63,11173
75,-76,2138,-167,20,-30,38.615,35.900,100626,-940.63,498
69,-79,2146,-170,25,-28,38.562,35.900,100626,-940.63,483
73,-70,2124,-166,21,-32,38.586,35.900,100626,-940.63,477
80,-83,2105,-172,23,-29,38.559,35.900,100626,-940.63,473
72,-75,2137,-169,16,-30,38.595,35.900,100626,-940.63,11176
68,-93,2135,-170,19,-30,38.556,35.900,100626,-940.63,507
61,-90,2116,-168,15,-34,38.571,35.900,100626,-940.63,484
73,-81,2139,-172,17,-35,38.568,35.900,100626,-940.63,477
78,-82,2130,-167,18,-37,38.574,35.900,100626,-940.63,473
71,-79,2137,-169,22,-32,38.595,35.900,100626,-940.63,11172
75,-86,2134,-169,14,-34,38.580,35.900,100626,-940.63,498
82,-82,2126,-165,15,-34,38.595,35.900,100626,-940.63,483
78,-67,2136,-167,16,-31,38.571,35.900,100626,-940.63,477
77,-69,2143,-169,20,-35,38.595,35.900,100626,-940.63,473
75,-78,2136,-166,15,-35,38.574,35.900,100623,-940.37,11177
78,-75,2128,-172,25,-34,38.583,35.900,100623,-940.37,504
78,-75,2142,-168,12,-34,38.595,35.900,100623,-940.37,484
81,-79,2152,-174,24,-31,38.580,35.900,100623,-940.37,477
83,-72,2152,-165,13,-31,38.592,35.900,100623,-940.37,473
71,-77,2139,-172,26,-33,38.592,35.900,100629,-940.88,11173
69,-74,2122,-170,17,-31,38.586,35.900,100629,-940.88,514
78,-88,2108,-173,19,-28,38.580,35.900,100629,-940.88,482
66,-80,2138,-169,22,-32,38.589,35.900,100629,-940.88,477
84,-80,2134,-171,20,-31,38.571,35.900,100629,-940.88,473
68,-100,2126,-169,23,-30,38.551,35.900,100623,-940.37,11177
67,-102,2137,-170,20,-32,38.568,35.900,100623,-940.37,517
56,-88,2134,-168,15,-33,38.565,35.900,100623,-940.37,484
82,-96,2107,-168,18,-33,38.583,35.900,100623,-940.37,477
71,-83,2140,-169,22,-33,38.559,35.900,100623,-940.37,473
78,-77,2141,-165,15,-37,38.565,35.900,100620,-940.12,11173
74,-73,2137,-170,18,-31,38.601,35.900,100620,-940.12,499
66,-85,2152,-169,20,-33,38.583,35.900,100620,-940.12,483
68,-73,2124,-167,14,-36,38.562,35.900,100620,-940.12,477
82,-58,2128,-168,21,-35,38.556,35.900,100620,-940.12,473
75,-60,2138,-168,16,-33,38.559,35.900,100620,-940.12,11177
79,-70,2142,-167,15,-34,38.571,35.900,100620,-940.12,502
67,-77,2141,-171,19,-34,38.562,35.900,100620,-940.12,484
86,-49,2136,-163,13,-29,38.583,35.900,100620,-940.12,477
80,-68,2111,-171,22,-30,38.592,35.900,100620,-940.12,473
64,-57,2128,-168,17,-36,38.565,35.900,100632,-941.14,11173
72,-83,2132,-168,18,-35,38.589,35.900,100632,-941.14,499
69,-78,2130,-170,20,-33,38.583,35.900,100632,-941.14,483
62,-80,2133,-168,19,-34,38.589,35.900,100632,-941.14,476
73,-78,2134,-169,19,-28,38.562,35.900,100632,-941.14,473
78,-78,2136,-169,22,-30,38.601,35.900,100623,-940.37,11177
82,-100,2130,-169,20,-33,38.574,35.900,100623,-940.37,511
69,-87,2123,-167,19,-36,38.601,35.900,100623,-940.37,484
90,-85,2123,-169,16,-29,38.586,35.900,100623,-940.37,477
74,-85,2123,-173,20,-32,38.548,35.900,100623,-940.37,473
72,-80,2117,-164,15,-34,38.598,35.900,100632,-941.14,11173
72,-87,2138,-170,19,-31,38.559,35.900,100632,-941.14,495
70,-82,2143,-169,13,-33,38.565,35.900,100632,-941.14,482
79,-77,2119,-171,21,-31,38.568,35.900,100632,-941.14,477
85,-71,2102,-166,15,-31,38.583,35.900,100632,-941.14,473
96,-83,2113,-174,23,-34,38.577,35.900,100620,-940.12,11177
86,-68,2130,-156,-2,-31,38.571,35.900,100620,-940.12,517
62,-76,2101,-178,33,-27,38.583,35.900,100620,-940.12,484
59,-89,2159,-157,1,-32,38.554,35.900,100620,-940.12,477
89,-60,2096,-184,42,-32,38.571,35.900,100620,-940.12,473
71,-75,2156,-157,0,-32,38.618,35.900,100626,-940.63,11173
95,-62,2136,-180,33,-31,38.571,35.900,100626,-940.63,512
54,-83,2139,-160,6,-32,38.589,35.900,100626,-940.63,483
85,-89,2108,-175,26,-28,38.574,35.900,100626,-940.63,477
72,-81,2121,-165,16,-31,38.559,35.900,100626,-940.63,473
79,-63,2126,-166,18,-32,38.586,35.900,100620,-940.12,11177
64,-82,2133,-165,16,-29,38.574,35.900,100620,-940.12,504
66,-88,2145,-170,16,-31,38.565,35.900,100620,-940.12,484
76,-80,2138,-172,24,-34,38.574,35.900,100620,-940.12,477
84,-102,2121,-168,14,-32,38.609,35.900,100620,-940.12,473
70,-93,2133,-171,19,-33,38.574,35.900,100623,-940.37,11173
79,-79,2139,-165,18,-29,38.565,35.900,100623,-940.37,499
82,-85,2155,-170,23,-29,38.606,35.900,100623,-940.37,483
68,-80,2142,-167,16,-28,38.601,35.900,100623,-940.37,477
74,-79,2111,-168,19,-30,38.592,35.900,100623,-940.37,473
79,-87,2112,-170,13,-32,38.583,35.900,100620,-940.12,11177
85,-81,2135,-168,22,-33,38.604,35.900,100620,-940.12,502
86,-91,2147,-169,19,-33,38.565,35.900,100620,-940.12,484
84,-77,2152,-169,16,-32,38.554,35.900,100620,-940.12,477
81,-69,2130,-171,22,-30,38.592,35.900,100620,-940.12,473
72,-75,2121,-167,18,-34,38.571,35.900,100629,-940.88,11173
64,-80,2132,-170,22,-34,38.580,35.900,100629,-940.88,516
72,-80,2121,-166,18,-30,38.595,35.900,100629,-940.88,483
77,-64,2133,-170,20,-32,38.589,35.900,100629,-940.88,477
69,-75,2140,-172,19,-29,38.601,35.900,100629,-940.88,473
80,-76,2135,-170,17,-29,38.556,35.900,100620,-940.12,11176
73,-79,2137,-171,21,-33,38.554,35.900,100620,-940.12,517
69,-77,2135,-167,14,-32,38.604,35.900,100620,-940.12,484
84,-76,2113,-172,20,-31,38.580,35.900,100620,-940.12,477
72,-69,2130,-167,10,-32,38.595,35.900,100620,-940.12,473
74,-78,2116,-171,25,-32,38.580,35.900,100626,-940.63,11172
68,-78,2126,-166,13,-30,38.589,35.900,100626,-940.63,513
69,-82,2141,-169,22,-29,38.606,35.900,100626,-940.63,482
68,-82,2138,-165,13,-32,38.606,35.900,100626,-940.63,477
77,-91,2118,-171,25,-30,38.580,35.900,100626,-940.63,473
62,-89,2145,-166,22,-34,38.583,35.900,100626,-940.63,11177
77,-86,2130,-168,21,-34,38.568,35.900,100626,-940.63,517
81,-78,2129,-171,15,-35,38.595,35.900,100626,-940.63,484
74,-74,2139,-166,11,-29,38.562,35.900,100626,-940.63,477
91,-102,2142,-173,23,-29,38.583,35.900,100626,-940.63,473
84,-87,2129,-161,10,-31,38.589,35.900,100623,-940.37,11173
75,-88,2113,-175,21,-31,38.577,35.900,100623,-940.37,498
83,-80,2141,-166,14,-31,38.615,35.900,100623,-940.37,483
77,-84,2104,-169,21,-32,38.568,35.900,100623,-940.37,477
77,-72,2142,-167,19,-28,38.583,35.900,100623,-940.37,473
81,-75,2140,-167,13,-33,38.577,35.900,100623,-940.37,11177
77,-83,2141,-169,20,-31,38.601,35.900,100623,-940.37,502
82,-67,2130,-170,21,-34,38.592,35.900,100623,-940.37,484
84,-78,2151,-168,16,-29,38.586,35.900,100623,-940.37,477
78,-81,2117,-169,16,-36,38.556,35.900,100623,-940.37,473
62,-75,2156,-169,19,-35,38.565,35.900,100623,-940.37,11173
72,-78,2123,-175,30,-34,38.577,35.900,100623,-940.37,496
73,-66,2140,-169,20,-32,38.574,35.900,100623,-940.37,483
70,-63,2128,-166,13,-32,38.589,35.900,100623,-940.37,477
62,-68,2155,-176,23,-33,38.571,35.900,100623,-940.37,473
66,-67,2142,-170,17,-35,38.559,35.900,100632,-941.14,11177
69,-70,2137,-171,19,-31,38.548,35.900,100632,-941.14,517
68,-86,2128,-168,18,-32,38.601,35.900,100632,-941.14,484
81,-86,2116,-169,21,-33,38.583,35.900,100632,-941.14,477
66,-88,2131,-170,19,-26,38.571,35.900,100632,-941.14,473
80,-93,2106,-168,23,-28,38.589,35.900,100626,-940.63,11172
69,-83,2128,-172,24,-34,38.586,35.900,100626,-940.63,512
89,-96,2125,-169,14,-35,38.586,35.900,100626,-940.63,483
61,-90,2141,-172,23,-29,38.577,35.900,100626,-940.63,477
75,-95,2119,-165,11,-33,38.583,35.900,100626,-940.63,473
78,-99,2133,-176,30,-34,38.571,35.900,100626,-940.63,11177
87,-80,2127,-164,13,-33,38.621,35.900,100626,-940.63,514
77,-74,2123,-173,24,-30,38.589,35.900,100626,-940.63,484
86,-79,2147,-167,13,-35,38.583,35.900,100626,-940.63,477
81,-68,2136,-171,27,-32,38.551,35.900,100626,-940.63,473
70,-79,2113,-172,22,-31,38.592,35.900,100623,-940.37,11173
86,-81,2121,-167,13,-33,38.583,35.900,100623,-940.37,497
72,-87,2116,-172,19,-30,38.565,35.900,100623,-940.37,483
80,-82,2127,-165,10,-37,38.577,35.900,100623,-940.37,477
76,-87,2117,-172,20,-29,38.559,35.900,100623,-940.37,473
80,-77,2152,-166,17,-34,38.580,35.900,100617,-939.86,11177
77,-81,2146,-167,19,-32,38.595,35.900,100617,-939.86,503
76,-69,2150,-168,12,-33,38.586,35.900,100617,-939.86,484
61,-72,2113,-173,18,-28,38.577,35.900,100617,-939.86,477
64,-70,2132,-164,15,-33,38.571,35.900,100617,-939.86,473
94,-64,2107,-171,23,-31,38.583,35.900,100620,-940.12,11173
64,-76,2155,-164,13,-29,38.583,35.900,100620,-940.12,498
87,-84,2115,-168,15,-32,38.571,35.900,100620,-940.12,483
75,-79,2172,-173,22,-32,38.565,35.900,100620,-940.12,477
72,-84,2118,-165,11,-33,38.595,35.900,100620,-940.12,473
81,-89,2119,-172,31,-30,38.580,35.900,100623,-940.37,11177
101,-82,2121,-163,14,-32,38.548,35.900,100623,-940.37,519
85,-104,2128,-168,25,-31,38.565,35.900,100623,-940.37,484
89,-83,2132,-162,12,-34,38.574,35.900,100623,-940.37,477
83,-80,2147,-168,23,-35,38.580,35.900,100623,-940.37,473
66,-82,2113,-170,14,-32,38.580,35.900,100629,-940.88,11173
75,-84,2143,-169,21,-30,38.583,35.900,100629,-940.88,515
84,-88,2139,-169,16,-31,38.601,35.900,100629,-940.88,483
83,-70,2143,-169,19,-25,38.568,35.900,100629,-940.88,477
70,-92,2112,-166,18,-30,38.574,35.900,100629,-940.88,473
74,-75,2125,-173,26,-29,38.571,35.900,100623,-940.37,11177
66,-83,2136,-170,17,-32,38.586,35.900,100623,-940.37,518
66,-77,2133,-169,23,-31,38.580,35.900,100623,-940.37,484
72,-82,2152,-166,11,-35,38.568,35.900,100623,-940.37,477
68,-75,2133,-173,26,-31,38.554,35.900,100623,-940.37,473
79,-76,2127,-166,12,-27,38.551,35.900,100617,-939.86,11172
61,-74,2149,-172,22,-31,38.556,35.900,100617,-939.86,513
78,-76,2124,-168,16,-32,38.580,35.900,100617,-939.86,483
70,-70,2101,-170,20,-35,38.568,35.900,100617,-939.86,477
69,-83,2129,-165,13,-36,38.586,35.900,100617,-939.86,473
83,-71,2142,-172,27,-29,38.592,35.900,100614,-939.60,11176
72,-73,2098,-169,14,-34,38.562,35.900,100614,-939.60,517
88,-70,2134,-171,30,-32,38.574,35.900,100614,-939.60,484
83,-69,2129,-168,13,-31,38.598,35.900,100614,-939.60,477
89,-73,2131,-171,25,-33,38.589,35.900,100614,-939.60,473
78,-77,2130,-165,17,-34,38.556,35.900,100614,-939.60,11172
87,-71,2099,-171,21,-33,38.565,35.900,100614,-939.60,499
68,-65,2114,-164,12,-31,38.571,35.900,100614,-939.60,483
68,-62,2140,-170,22,-28,38.542,35.900,100614,-939.60,477
73,-59,2115,-171,16,-33,38.562,35.900,100614,-939.60,473
76,-64,2127,-164,17,-32,38.577,35.900,100617,-939.86,11177
79,-84,2122,-170,16,-33,38.577,35.900,100617,-939.86,504
62,-95,2126,-167,16,-29,38.568,35.900,100617,-939.86,484
71,-86,2124,-170,20,-32,38.554,35.900,100617,-939.86,477
59,-84,2160,-169,21,-32,38.551,35.900,100617,-939.86,473
87,-89,2136,-167,16,-33,38.571,35.900,100617,-939.86,11173
74,-94,2121,-168,12,-34,38.556,35.900,100617,-939.86,514
84,-83,2114,-167,19,-34,38.565,35.900,100617,-939.86,483
71,-93,2152,-165,18,-31,38.565,35.900,100617,-939.86,477
93,-92,2131,-171,23,-36,38.548,35.900,100617,-939.86,473
84,-71,2140,-168,15,-36,38.554,35.900,100626,-940.63,11177
81,-79,2128,-164,14,-37,38.539,35.900,100626,-940.63,517
79,-72,2135,-168,17,-38,38.542,35.900,100626,-940.63,484
87,-75,2130,-168,19,-34,38.568,35.900,100626,-940.63,477
81,-61,2148,-165,17,-30,38.580,35.900,100626,-940.63,473
90,-78,2112,-172,21,-34,38.539,35.900,100629,-940.88,11173
62,-70,2132,-169,11,-27,38.542,35.900,100629,-940.88,514
71,-84,2132,-170,22,-26,38.556,35.900,100629,-940.88,483
71,-87,2141,-168,19,-27,38.565,35.900,100629,-940.88,477
67,-69,2120,-169,17,-32,38.562,35.900,100629,-940.88,473
65,-87,2145,-173,19,-31,38.571,35.900,100623,-940.37,11177
79,-108,2136,-169,20,-33,38.589,35.900,100623,-940.37,517
62,-85,2113,-168,24,-32,38.568,35.900,100623,-940.37,484
73,-81,2099,-167,15,-32,38.548,35.900,100623,-940.37,476
57,-82,2147,-170,17,-34,38.571,35.900,100623,-940.37,473
65,-80,2139,-169,14,-32,38.571,35.900,100620,-940.12,11173
63,-63,2142,-169,17,-36,38.554,35.900,100620,-940.12,499
66,-69,2133,-169,13,-31,38.554,35.900,100620,-940.12,482
69,-63,2123,-170,16,-33,38.542,35.900,100620,-940.12,477
83,-65,2136,-167,14,-32,38.524,35.900,100620,-940.12,473
81,-86,2144,-173,23,-32,38.577,35.900,100623,-940.37,11177
77,-72,2128,-165,14,-34,38.571,35.900,100623,-940.37,503
103,-75,2121,-168,19,-35,38.542,35.900,100623,-940.37,484
89,-78,2127,-167,7,-32,38.612,35.900,100623,-940.37,477
82,-71,2140,-170,19,-32,38.565,35.900,100623,-940.37,473
78,-82,2144,-164,12,-37,38.565,36.000,100638,-941.65,11173
72,-95,2117,-176,31,-33,38.551,36.000,100638,-941.65,495
70,-84,2144,-161,6,-31,38.548,36.000,100638,-941.65,483
79,-97,2122,-181,35,-30,38.524,36.000,100638,-941.65,477
60,-74,2142,-164,7,-32,38.533,36.000,100638,-941.65,473
77,-81,2135,-176,29,-35,38.589,35.900,100617,-939.86,11177
74,-90,2121,-165,7,-28,38.577,35.900,100617,-939.86,502
68,-79,2123,-173,26,-30,38.545,35.900,100617,-939.86,484
69,-75,2121,-165,5,-28,38.559,35.900,100617,-939.86,477
81,-67,2136,-170,22,-28,38.592,35.900,100617,-939.86,473
78,-78,2102,-169,14,-29,38.583,35.900,100626,-940.63,11172
66,-76,2107,-170,21,-28,38.589,35.900,100626,-940.63,496
78,-71,2117,-169,16,-29,38.565,35.900,100626,-940.63,483
80,-87,2129,-169,22,-27,38.554,35.900,100626,-940.63,476
92,-66,2120,-165,13,-32,38.583,35.900,100626,-940.63,473
84,-87,2157,-169,19,-28,38.571,36.000,100629,-940.88,11177
90,-71,2156,-165,16,-31,38.559,36.000,100629,-940.88,516
80,-83,2130,-169,24,-32,38.542,36.000,100629,-940.88,484
79,-92,2116,-169,15,-34,38.592,36.000,100629,-940.88,477
72,-82,2132,-171,23,-36,38.542,36.000,100629,-940.88,473
71,-62,2134,-166,14,-39,38.568,35.900,100620,-940.12,11173
81,-77,2110,-170,19,-34,38.574,35.900,100620,-940.12,512
52,-71,2128,-168,18,-37,38.559,35.900,100620,-940.12,483
77,-68,2131,-169,18,-32,38.562,35.900,100620,-940.12,477
75,-60,2122,-167,20,-27,38.562,35.900,100620,-940.12,473
71,-69,2106,-171,18,-28,38.565,35.900,100614,-939.60,11177
69,-85,2143,-166,15,-30,38.574,35.900,100614,-939.60,502
53,-91,2127,-172,22,-33,38.542,35.900,100614,-939.60,484
85,-100,2113,-169,19,-31,38.562,35.900,100614,-939.60,477
81,-101,2131,-170,18,-28,38.601,35.900,100614,-939.60,473
69,-97,2144,-169,16,-28,38.604,35.900,100620,-940.12,11172
93,-107,2117,-168,15,-33,38.577,35.900,100620,-940.12,498
88,-96,2154,-168,19,-32,38.524,35.900,100620,-940.12,482
72,-84,2117,-167,16,-33,38.577,35.900,100620,-940.12,477
85,-84,2129,-168,17,-32,38.592,35.900,100620,-940.12,473
85,-76,2120,-170,13,-35,38.580,35.900,100623,-940.37,11177
77,-69,2117,-167,19,-32,38.565,35.900,100623,-940.37,517
68,-81,2122,-167,20,-32,38.589,35.900,100623,-940.37,484
70,-72,2117,-168,17,-33,38.598,35.900,100623,-940.37,477
76,-72,2132,-168,18,-30,38.565,35.900,100623,-940.37,473
95,-72,2142,-169,20,-30,38.562,35.900,100617,-939.86,11173
74,-77,2142,-169,18,-32,38.574,35.900,100617,-939.86,506
75,-60,2129,-168,21,-29,38.562,35.900,100617,-939.86,483
80,-63,2131,-170,16,-30,38.577,35.900,100617,-939.86,477
71,-69,2108,-167,19,-29,38.559,35.900,100617,-939.86,473
74,-77,2125,-168,17,-30,38.548,35.900,100623,-940.37,11177
72,-77,2114,-167,15,-34,38.583,35.900,100623,-940.37,517
86,-87,2149,-171,18,-34,38.595,35.900,100623,-940.37,484
67,-86,2132,-170,20,-31,38.568,35.900,100623,-940.37,476
72,-69,2132,-167,18,-36,38.577,35.900,100623,-940.37,473
72,-80,2129,-169,19,-30,38.577,35.900,100626,-940.63,11172
64,-86,2146,-174,18,-32,38.586,35.900,100626,-940.63,514
70,-85,2124,-170,17,-32,38.539,35.900,100626,-940.63,483
68,-83,2157,-173,20,-31,38.574,35.900,100626,-940.63,477
79,-97,2151,-169,17,-36,38.562,35.900,100626,-940.63,473
74,-93,2149,-169,15,-35,38.551,36.000,100623,-940.37,11176
69,-100,2120,-172,12,-34,38.565,36.000,100623,-940.37,502
86,-85,2146,-169,18,-34,38.586,36.000,100623,-940.37,484
89,-76,2131,-170,17,-30,38.568,36.000,100623,-940.37,477
86,-89,2148,-167,13,-33,38.551,36.000,100623,-940.37,473
92,-82,2128,-170,19,-33,38.571,35.900,100617,-939.86,11173
75,-67,2140,-170,22,-37,38.565,35.900,100617,-939.86,499
90,-71,2128,-167,15,-28,38.556,35.900,100617,-939.86,483
87,-63,2120,-170,19,-32,38.577,35.900,100617,-939.86,477
78,-74,2129,-169,19,-33,38.554,35.900,100617,-939.86,473
70,-77,2139,-168,22,-27,38.539,35.900,100623,-940.37,11177
73,-79,2132,-172,21,-29,38.548,35.900,100623,-940.37,503
67,-83,2127,-170,24,-28,38.559,35.900,100623,-940.37,484
65,-76,2142,-169,19,-30,38.568,35.900,100623,-940.37,477
54,-86,2141,-172,35,-30,38.571,35.900,100623,-940.37,473
56,-93,2146,-165,8,-29,38.551,36.000,100623,-940.37,11173
50,-84,2127,-178,35,-29,38.565,36.000,100623,-940.37,497
55,-92,2123,-158,-2,-30,38.559,36.000,100623,-940.37,483
56,-82,2113,-174,23,-33,38.554,36.000,100623,-940.37,477
63,-95,2160,-165,11,-34,38.574,36.000,100623,-940.37,473
57,-86,2116,-183,44,-38,38.559,36.000,100620,-940.12,11176
79,-86,2127,-157,-4,-30,38.589,36.000,100620,-940.12,516
72,-84,2130,-175,20,-36,38.542,36.000,100620,-940.12,484
62,-101,2121,-161,2,-34,38.615,36.000,100620,-940.12,477
77,-90,2105,-176,21,-38,38.556,36.000,100620,-940.12,473
81,-63,2132,-164,9,-36,38.595,36.000,100626,-940.63,11173
111,-75,2110,-169,18,-38,38.577,36.000,100626,-940.63,506
86,-66,2145,-161,14,-36,38.548,36.000,100626,-940.63,482
94,-65,2117,-168,13,-32,38.574,36.000,100626,-940.63,477
77,-69,2117,-171,27,-36,38.562,36.000,100626,-940.63,473
90,-73,2118,-168,23,-32,38.565,36.000,100611,-939.34,11176
76,-72,2126,-171,19,-33,38.554,36.000,100611,-939.34,517
67,-68,2138,-171,18,-31,38.586,36.000,100611,-939.34,484
76,-67,2135,-168,18,-31,38.562,36.000,100611,-939.34,477
75,-64,2136,-171,21,-32,38.577,36.000,100611,-939.34,473
79,-78,2138,-171,24,-25,38.598,36.000,100620,-940.12,11172
84,-75,2140,-165,17,-23,38.574,36.000,100620,-940.12,499
75,-92,2125,-173,25,-25,38.586,36.000,100620,-940.12,483
66,-85,2118,-166,16,-31,38.551,36.000,100620,-940.12,477
89,-75,2096,-168,18,-26,38.542,36.000,100620,-940.12,473
69,-90,2115,-169,23,-31,38.568,36.000,100626,-940.63,11176
64,-78,2135,-170,19,-29,38.568,36.000,100626,-940.63,501
65,-90,2143,-170,24,-28,38.562,36.000,100626,-940.63,484
73,-82,2129,-171,17,-31,38.556,36.000,100626,-940.63,477
65,-93,2112,-167,17,-33,38.586,36.000,100626,-940.63,473
71,-88,2140,-169,18,-36,38.542,35.900,100614,-939.60,11173
66,-64,2137,-169,17,-35,38.571,35.900,100614,-939.60,499
63,-83,2114,-168,17,-35,38.539,35.900,100614,-939.60,483
82,-73,2125,-169,15,-34,38.571,35.900,100614,-939.60,477
88,-70,2114,-168,13,-31,38.536,35.900,100614,-939.60,473
86,-67,2134,-171,22,-33,38.542,36.000,100626,-940.63,11177
84,-65,2145,-169,19,-34,38.571,36.000,100626,-940.63,505
83,-74,2120,-173,24,-37,38.556,36.000,100626,-940.63,484
78,-76,2137,-170,21,-29,38.554,36.000,100626,-940.63,476
83,-86,2116,-174,24,-32,38.539,36.000,100626,-940.63,473
62,-86,2136,-171,17,-32,38.556,36.000,100605,-938.83,11173
79,-81,2117,-170,18,-32,38.539,36.000,100605,-938.83,499
68,-92,2115,-172,21,-32,38.556,36.000,100605,-938.83,483
66,-75,2134,-170,21,-30,38.554,36.000,100605,-938.83,477
70,-91,2133,-171,19,-28,38.562,36.000,100605,-938.83,473
81,-82,2130,-168,20,-29,38.551,36.000,100623,-940.37,11177
84,-82,2139,-164,18,-27,38.586,36.000,100623,-940.37,507
83,-99,2123,-166,10,-31,38.574,36.000,100623,-940.37,484
81,-89,2133,-166,16,-31,38.556,36.000,100623,-940.37,477
78,-79,2146,-169,19,-29,38.565,36.000,100623,-940.37,473
88,-72,2143,-165,15,-33,38.539,36.000,100623,-940.37,11173
88,-80,2139,-168,21,-36,38.571,36.000,100623,-940.37,501
71,-73,2122,-166,17,-33,38.565,36.000,100623,-940.37,482
80,-54,2147,-168,17,-35,38.583,36.000,100623,-940.37,477
66,-69,2143,-166,17,-34,38.559,36.000,100623,-940.37,473
76,-69,2130,-167,16,-34,38.595,36.000,100623,-940.37,11177
59,-67,2151,-166,18,-29,38.580,36.000,100623,-940.37,500
73,-80,2113,-168,14,-28,38.559,36.000,100623,-940.37,484
91,-56,2120,-170,18,-33,38.580,36.000,100623,-940.37,477
68,-78,2156,-169,20,-32,38.574,36.000,100623,-940.37,473
79,-84,2147,-168,15,-35,38.574,36.000,100626,-940.63,11173
79,-71,2147,-170,20,-34,38.586,36.000,100626,-940.63,499
73,-89,2130,-170,17,-32,38.592,36.000,100626,-940.63,483
82,-79,2144,-167,20,-32,38.559,36.000,100626,-940.63,477
74,-81,2129,-167,19,-32,38.542,36.000,100626,-940.63,473
80,-76,2109,-168,19,-34,38.580,36.000,100629,-940.88,11177
66,-86,2126,-170,21,-35,38.595,36.000,100629,-940.88,500
64,-88,2148,-170,20,-39,38.551,36.000,100629,-940.88,484
67,-74,2114,-172,22,-36,38.568,36.000,100629,-940.88,477
72,-74,2124,-168,16,-37,38.574,36.000,100629,-940.88,473
69,-65,2155,-170,18,-34,38.574,36.000,100626,-940.63,11172
77,-71,2125,-168,14,-33,38.562,36.000,100626,-940.63,495
74,-73,2132,-169,17,-32,38.548,36.000,100626,-940.63,483
79,-80,2123,-170,19,-33,38.559,36.000,100626,-940.63,477
81,-80,2116,-172,20,-34,38.554,36.000,100626,-940.63,473
78,-82,2149,-164,9,-34,38.592,36.000,100617,-939.86,11177
78,-80,2132,-174,18,-34,38.548,36.000,100617,-939.86,516
70,-68,2138,-167,13,-32,38.586,36.000,100617,-939.86,484
77,-67,2119,-171,17,-34,38.586,36.000,100617,-939.86,477
69,-78,2136,-172,12,-31,38.548,36.000,100617,-939.86,473
80,-77,2118,-168,21,-32,38.527,36.000,100623,-940.37,11173
85,-77,2138,-168,15,-30,38.574,36.000,100623,-940.37,511
68,-88,2125,-170,22,-29,38.595,36.000,100623,-940.37,483
76,-93,2115,-165,18,-27,38.548,36.000,100623,-940.37,477
92,-100,2136,-172,23,-30,38.568,36.000,100623,-940.37,473
69,-89,2131,-166,15,-31,38.548,36.000,100620,-940.12,11177
80,-83,2125,-175,26,-30,38.577,36.000,100620,-940.12,515
71,-82,2105,-166,18,-31,38.568,36.000,100620,-940.12,484
75,-80,2132,-169,18,-32,38.554,36.000,100620,-940.12,477
65,-70,2132,-166,17,-34,38.586,36.000,100620,-940.12,473
66,-69,2129,-170,16,-33,38.551,36.000,100626,-940.63,11173
60,-69,2132,-165,17,-33,38.562,36.000,100626,-940.63,511
71,-73,2133,-169,25,-35,38.568,36.000,100626,-940.63,483
62,-80,2132,-167,16,-35,38.571,36.000,100626,-940.63,477
87,-82,2144,-169,24,-30,38.577,36.000,100626,-940.63,473
80,-74,2153,-167,13,-31,38.568,36.000,100620,-940.12,11177
85,-68,2123,-170,14,-34,38.556,36.000,100620,-940.12,513
85,-64,2158,-167,18,-34,38.565,36.000,100620,-940.12,484
88,-75,2128,-173,24,-29,38.568,36.000,100620,-940.12,477
87,-73,2123,-167,13,-31,38.589,36.000,100620,-940.12,473
84,-87,2121,-172,17,-35,38.583,36.000,100614,-939.60,11173
73,-70,2142,-171,19,-31,38.571,36.000,100614,-939.60,515
86,-75,2136,-167,16,-34,38.559,36.000,100614,-939.60,483
62,-80,2140,-176,27,-36,38.577,36.000,100614,-939.60,477
81,-70,2117,-163,9,-35,38.551,36.000,100614,-939.60,473
75,-79,2130,-175,22,-29,38.565,36.000,100620,-940.12,11177
77,-72,2124,-164,10,-29,38.521,36.000,100620,-940.12,517
65,-81,2138,-172,23,-32,38.542,36.000,100620,-940.12,484
79,-95,2149,-165,11,-26,38.574,36.000,100620,-940.12,476
85,-88,2108,-171,24,-35,38.580,36.000,100620,-940.12,473
83,-84,2138,-163,8,-30,38.571,36.000,100617,-939.86,11173
85,-90,2113,-169,20,-27,38.574,36.000,100617,-939.86,513
86,-100,2146,-164,12,-31,38.565,36.000,100617,-939.86,483
86,-85,2131,-176,28,-35,38.524,36.000,100617,-939.86,477
71,-77,2118,-168,14,-34,38.577,36.000,100617,-939.86,473
79,-84,2123,-171,20,-33,38.545,36.000,100617,-939.86,11177
79,-77,2128,-165,17,-35,38.589,36.000,100617,-939.86,517
71,-75,2111,-170,25,-37,38.598,36.000,100617,-939.86,484
67,-68,2149,-169,20,-40,38.559,36.000,100617,-939.86,477
68,-64,2123,-168,16,-33,38.595,36.000,100617,-939.86,473
61,-63,2116,-171,21,-33,38.577,36.000,100620,-940.12,11173
67,-56,2136,-167,18,-31,38.574,36.000,100620,-940.12,512
77,-69,2112,-175,26,-31,38.568,36.000,100620,-940.12,483
58,-74,2135,-167,17,-29,38.574,36.000,100620,-940.12,476
78,-73,2117,-171,20,-27,38.565,36.000,100620,-940.12,473
84,-90,2119,-170,20,-31,38.592,36.000,100620,-940.12,11177
82,-87,2134,-168,14,-32,38.548,36.000,100620,-940.12,517
84,-94,2129,-172,21,-29,38.545,36.000,100620,-940.12,484
75,-100,2144,-163,8,-33,38.586,36.000,100620,-940.12,477
78,-82,2100,-177,24,-36,38.542,36.000,100620,-940.12,473
74,-76,2120,-166,18,-30,38.571,36.000,100617,-939.86,11172
89,-80,2124,-172,26,-34,38.589,36.000,100617,-939.86,516
67,-93,2139,-171,19,-34,38.571,36.000,100617,-939.86,483
86,-77,2120,-169,11,-32,38.527,36.000,100617,-939.86,477
73,-74,2124,-177,27,-33,38.586,36.000,100617,-939.86,473
75,-57,2131,-160,8,-34,38.539,36.000,100626,-940.63,11176
73,-75,2115,-174,26,-31,38.568,36.000,100626,-940.63,513
65,-70,2129,-170,17,-35,38.589,36.000,100626,-940.63,484
66,-79,2133,-173,31,-33,38.589,36.000,100626,-940.63,477
79,-81,2114,-168,15,-28,38.601,36.000,100626,-940.63,473
92,-74,2141,-172,21,-34,38.562,36.000,100614,-939.60,11172
77,-79,2121,-167,16,-33,38.586,36.000,100614,-939.60,512
81,-76,2135,-173,22,-33,38.580,36.000,100614,-939.60,483
75,-73,2150,-168,18,-31,38.612,36.000,100614,-939.60,477
75,-60,2131,-169,20,-32,38.606,36.000,100614,-939.60,473
54,-77,2152,-167,15,-30,38.580,36.000,100617,-939.86,11177
70,-73,2111,-169,19,-33,38.574,36.000,100617,-939.86,518
67,-77,2117,-175,21,-33,38.559,36.000,100617,-939.86,484
83,-66,2124,-166,10,-31,38.586,36.000,100617,-939.86,477
81,-70,2141,-173,20,-25,38.598,36.000,100617,-939.86,473
74,-88,2142,-170,19,-34,38.595,36.000,100623,-940.37,11173
69,-99,2102,-169,15,-29,38.551,36.000,100623,-940.37,513
76,-90,2102,-170,18,-35,38.583,36.000,100623,-940.37,482
82,-77,2124,-167,19,-32,38.606,36.000,100623,-940.37,477
90,-94,2125,-169,17,-32,38.595,36.000,100623,-940.37,473
87,-78,2118,-173,22,-28,38.589,36.000,100629,-940.88,11177
88,-78,2129,-165,13,-26,38.589,36.000,100629,-940.88,504
79,-77,2104,-175,34,-33,38.554,36.000,100629,-940.88,484
71,-87,2130,-165,11,-29,38.568,36.000,100629,-940.88,477
81,-73,2123,-174,27,-37,38.580,36.000,100629,-940.88,473
77,-84,2134,-166,15,-33,38.609,36.000,100629,-940.88,11172
86,-74,2121,-169,20,-35,38.589,36.000,100629,-940.88,499
75,-82,2141,-171,18,-34,38.580,36.000,100629,-940.88,483
71,-86,2129,-163,9,-32,38.574,36.000,100629,-940.88,477
79,-91,2143,-174,27,-37,38.580,36.000,100629,-940.88,473
64,-64,2167,-159,6,-34,38.595,36.000,100620,-940.12,11177
60,-74,2142,-173,26,-33,38.574,36.000,100620,-940.12,504
78,-65,2124,-165,15,-33,38.606,36.000,100620,-940.12,484
80,-72,2130,-170,17,-32,38.598,36.000,100620,-940.12,477
79,-78,2104,-173,26,-33,38.595,36.000,100620,-940.12,473
86,-64,2129,-160,6,-31,38.592,36.000,100620,-940.12,11172
70,-63,2124,-175,26,-35,38.618,36.000,100620,-940.12,514
64,-83,2141,-167,14,-31,38.621,36.000,100620,-940.12,483
69,-74,2106,-171,19,-31,38.571,36.000,100620,-940.12,477
82,-81,2114,-171,20,-32,38.565,36.000,100620,-940.12,473
91,-85,2139,-164,11,-30,38.568,36.000,100617,-939.86,11177
75,-80,2144,-173,27,-29,38.562,36.000,100617,-939.86,516
66,-90,2130,-167,11,-31,38.574,36.000,100617,-939.86,484
72,-83,2127,-178,29,-32,38.556,36.000,100617,-939.86,477
71,-88,2123,-160,9,-29,38.571,36.000,100617,-939.86,473
71,-85,2148,-170,24,-25,38.598,36.000,100620,-940.12,11173
80,-86,2119,-168,21,-27,38.606,36.000,100620,-940.12,503
78,-79,2122,-171,26,-28,38.542,36.000,100620,-940.12,483
87,-97,2137,-169,20,-27,38.551,36.000,100620,-940.12,477
72,-87,2118,-168,19,-31,38.609,36.000,100620,-940.12,473
73,-89,2116,-166,17,-28,38.604,36.000,100620,-940.12,11177
75,-82,2131,-173,21,-33,38.562,36.000,100620,-940.12,517
68,-89,2143,-165,20,-35,38.598,36.000,100620,-940.12,484
79,-80,2120,-165,18,-32,38.562,36.000,100620,-940.12,477
66,-80,2130,-167,18,-32,38.559,36.000,100620,-940.12,473
78,-67,2141,-168,22,-31,38.565,36.000,100632,-941.14,11172
62,-66,2103,-171,18,-32,38.604,36.000,100632,-941.14,500
74,-84,2145,-168,14,-35,38.604,36.000,100632,-941.14,483
53,-77,2138,-169,24,-30,38.562,36.000,100632,-941.14,477
68,-78,2147,-167,12,-30,38.589,36.000,100632,-941.14,473
71,-72,2139,-169,17,-35,38.571,36.000,100626,-940.63,11176
84,-72,2139,-168,14,-34,38.565,36.000,100626,-940.63,501
73,-73,2140,-169,12,-31,38.574,36.000,100626,-940.63,484
75,-81,2139,-169,18,-33,38.615,36.000,100626,-940.63,477
83,-67,2116,-169,14,-32,38.571,36.000,100626,-940.63,473
73,-87,2143,-168,13,-31,38.574,36.000,100635,-941.40,11173
80,-87,2119,-171,21,-32,38.571,36.000,100635,-941.40,495
84,-88,2124,-166,17,-33,38.592,36.000,100635,-941.40,482
89,-75,2126,-170,19,-28,38.598,36.000,100635,-941.40,477
72,-85,2118,-169,17,-30,38.562,36.000,100635,-941.40,473
73,-93,2144,-168,21,-33,38.565,36.000,100632,-941.14,11177
74,-69,2148,-167,18,-32,38.586,36.000,100632,-941.14,517
72,-87,2146,-166,18,-29,38.542,36.000,100632,-941.14,484
80,-93,2137,-171,25,-33,38.583,36.000,100632,-941.14,477
82,-85,2122,-166,12,-31,38.583,36.000,100632,-941.14,473
82,-87,2117,-169,20,-34,38.586,36.000,100632,-941.14,11173
71,-89,2140,-168,15,-31,38.598,36.000,100632,-941.14,514
62,-97,2150,-172,23,-34,38.574,36.000,100632,-941.14,483
71,-75,2129,-168,15,-33,38.577,36.000,100632,-941.14,477
72,-85,2131,-170,20,-35,38.542,36.000,100632,-941.14,473
72,-68,2127,-167,15,-33,38.556,36.000,100629,-940.88,11177
75,-76,2149,-170,21,-34,38.551,36.000,100629,-940.88,516
76,-62,2145,-163,12,-37,38.524,36.000,100629,-940.88,484
73,-71,2133,-170,20,-35,38.551,36.000,100629,-940.88,477
75,-64,2152,-167,19,-35,38.548,36.000,100629,-940.88,473
66,-62,2147,-169,16,-30,38.565,36.000,100629,-940.88,11173
80,-75,2100,-169,16,-32,38.601,36.000,100629,-940.88,514
80,-81,2124,-168,18,-26,38.536,36.000,100629,-940.88,482
82,-68,2125,-171,19,-32,38.568,36.000,100629,-940.88,477
84,-64,2150,-170,19,-30,38.559,36.000,100629,-940.88,473
77,-76,2120,-171,20,-29,38.586,36.000,100626,-940.63,11177
80,-79,2143,-172,24,-30,38.568,36.000,100626,-940.63,503
72,-71,2115,-168,14,-30,38.565,36.000,100626,-940.63,484
80,-80,2095,-171,25,-28,38.556,36.000,100626,-940.63,477
93,-76,2140,-167,19,-27,38.601,36.000,100626,-940.63,473
72,-102,2131,-171,25,-28,38.571,36.000,100632,-941.14,11173
81,-109,2147,-168,19,-29,38.583,36.000,100632,-941.14,499
67,-92,2139,-169,20,-33,38.554,36.000,100632,-941.14,483
74,-85,2100,-173,23,-29,38.562,36.000,100632,-941.14,477
57,-99,2143,-164,15,-35,38.580,36.000,100632,-941.14,473
74,-88,2121,-175,29,-30,38.521,36.000,100632,-941.14,11177
58,-72,2127,-164,8,-31,38.548,36.000,100632,-941.14,502
71,-64,2135,-169,19,-36,38.536,36.000,100632,-941.14,484
58,-60,2160,-169,18,-35,38.562,36.000,100632,-941.14,477
65,-75,2130,-167,16,-37,38.562,36.000,100632,-941.14,473
85,-59,2130,-170,12,-31,38.545,36.000,100626,-940.63,11173
73,-76,2133,-168,13,-33,38.571,36.000,100626,-940.63,499
84,-64,2144,-169,15,-35,38.586,36.000,100626,-940.63,483
70,-49,2121,-171,17,-28,38.565,36.000,100626,-940.63,477
92,-62,2136,-171,22,-31,38.554,36.000,100626,-940.63,473
92,-71,2113,-169,20,-29,38.556,36.000,100632,-941.14,11177
88,-77,2116,-165,16,-29,38.562,36.000,100632,-941.14,516
106,-90,2106,-165,16,-30,38.559,36.000,100632,-941.14,484
85,-88,2145,-168,19,-34,38.551,36.000,100632,-941.14,477
73,-90,2125,-171,22,-31,38.545,36.000,100632,-941.14,473
82,-90,2124,-168,14,-28,38.548,36.000,100617,-939.86,11173
74,-94,2160,-167,18,-30,38.571,36.000,100617,-939.86,514
69,-88,2139,-164,15,-31,38.574,36.000,100617,-939.86,483
62,-92,2134,-171,26,-29,38.521,36.000,100617,-939.86,477
73,-93,2132,-166,11,-30,38.580,36.000,100617,-939.86,473
75,-83,2126,-174,26,-30,38.551,36.000,100632,-941.14,11176
57,-85,2125,-166,11,-33,38.556,36.000,100632,-941.14,502
68,-64,2119,-169,15,-34,38.577,36.000,100632,-941.14,484
56,-61,2133,-168,22,-36,38.568,36.000,100632,-941.14,477
70,-59,2140,-166,15,-29,38.577,36.000,100632,-941.14,473
85,-71,2121,-165,14,-33,38.556,36.000,100632,-941.14,11173
84,-83,2125,-169,18,-29,38.551,36.000,100632,-941.14,495
82,-80,2110,-168,15,-31,38.562,36.000,100632,-941.14,483
73,-65,2124,-170,23,-29,38.548,36.000,100632,-941.14,477
86,-71,2117,-169,16,-32,38.542,36.000,100632,-941.14,473
69,-60,2140,-167,21,-32,38.554,36.000,100626,-940.63,11176
70,-89,2138,-170,22,-34,38.554,36.000,100626,-940.63,500
67,-87,2131,-171,20,-31,38.574,36.000,100626,-940.63,484
81,-82,2124,-169,27,-35,38.542,36.000,100626,-940.63,477
84,-80,2114,-169,17,-33,38.539,36.000,100626,-940.63,473
67,-93,2151,-170,25,-28,38.533,36.000,100623,-940.37,11172
62,-86,2126,-171,17,-38,38.533,36.000,100623,-940.37,498
61,-95,2128,-170,19,-31,38.554,36.000,100623,-940.37,483
78,-89,2133,-170,20,-29,38.533,36.000,100623,-940.37,477
66,-87,2126,-170,21,-34,38.568,36.000,100623,-940.37,473
67,-83,2121,-170,16,-33,38.545,36.000,100626,-940.63,11177
76,-79,2134,-170,16,-29,38.577,36.000,100626,-940.63,504
82,-79,2100,-168,15,-37,38.530,36.000,100626,-940.63,484
78,-93,2132,-167,15,-31,38.515,36.000,100626,-940.63,477
89,-73,2130,-170,17,-28,38.527,36.000,100626,-940.63,473
78,-77,2125,-171,22,-27,38.559,36.000,100626,-940.63,11173
81,-87,2107,-167,17,-32,38.577,36.000,100626,-940.63,514
78,-69,2132,-170,20,-30,38.559,36.000,100626,-940.63,483
65,-75,2131,-167,12,-31,38.571,36.000,100626,-940.63,476
82,-76,2144,-169,21,-30,38.524,36.000,100626,-940.63,473
72,-77,2106,-170,20,-30,38.492,36.000,100632,-941.14,11177
62,-77,2142,-170,20,-34,38.536,36.000,100632,-941.14,517
82,-71,2123,-166,14,-29,38.568,36.000,100632,-941.14,484
70,-88,2114,-171,20,-31,38.545,36.000,100632,-941.14,476
68,-82,2148,-171,21,-34,38.533,36.000,100632,-941.14,473
68,-79,2129,-172,22,-29,38.556,36.000,100629,-940.88,11173
73,-81,2151,-168,20,-33,38.559,36.000,100629,-940.88,500
65,-82,2108,-168,21,-32,38.545,36.000,100629,-940.88,483
70,-85,2125,-163,11,-36,38.548,36.000,100629,-940.88,477
66,-74,2144,-172,21,-33,38.539,36.000,100629,-940.88,473
85,-94,2124,-167,12,-36,38.542,36.000,100626,-940.63,11177
82,-72,2129,-167,13,-39,38.515,36.000,100626,-940.63,502
85,-85,2128,-168,19,-38,38.571,36.000,100626,-940.63,484
90,-83,2131,-165,12,-34,38.601,36.000,100626,-940.63,477
74,-84,2155,-173,24,-34,38.545,36.000,100626,-940.63,473
86,-74,2117,-167,19,-38,38.536,36.000,100626,-940.63,11173
75,-87,2122,-169,18,-33,38.559,36.000,100626,-940.63,496
74,-83,2134,-169,19,-36,38.565,36.000,100626,-940.63,483
80,-89,2124,-173,19,-34,38.545,36.000,100626,-940.63,477
85,-68,2115,-164,12,-34,38.545,36.000,100626,-940.63,473
70,-64,2130,-166,15,-34,38.565,36.000,100623,-940.37,11177
84,-78,2151,-170,25,-32,38.562,36.000,100623,-940.37,517
77,-77,2130,-166,13,-31,38.533,36.000,100623,-940.37,484
100,-73,2135,-175,26,-37,38.559,36.000,100623,-940.37,477
98,-78,2136,-166,13,-35,38.559,36.000,100623,-940.37,473
81,-78,2118,-168,20,-32,38.562,36.000,100632,-941.14,11173
64,-75,2128,-166,9,-30,38.556,36.000,100632,-941.14,512
76,-75,2120,-177,31,-34,38.533,36.000,100632,-941.14,482
76,-67,2167,-164,15,-32,38.545,36.000,100632,-941.14,477
77,-74,2100,-173,22,-32,38.548,36.000,100632,-941.14,473
58,-59,2136,-166,16,-29,38.542,36.000,100635,-941.40,11176
62,-72,2131,-174,22,-32,38.530,36.000,100635,-941.40,517
54,-82,2133,-168,18,-26,38.565,36.000,100635,-941.40,484
74,-95,2134,-170,19,-26,38.542,36.000,100635,-941.40,476
76,-71,2134,-167,19,-28,38.562,36.000,100635,-941.40,473
69,-103,2130,-169,20,-30,38.568,36.000,100614,-939.60,11173
62,-98,2142,-169,15,-28,38.571,36.000,100614,-939.60,500
84,-99,2125,-166,18,-25,38.571,36.000,100614,-939.60,483
86,-82,2137,-168,15,-32,38.574,36.000,100614,-939.60,477
76,-93,2126,-168,20,-29,38.548,36.000,100614,-939.60,473
77,-88,2136,-169,18,-33,38.562,36.000,100623,-940.37,11177
79,-82,2141,-173,21,-31,38.562,36.000,100623,-940.37,502
85,-77,2148,-168,20,-31,38.551,36.000,100623,-940.37,484
75,-74,2128,-173,14,-29,38.551,36.000,100623,-940.37,477
69,-64,2142,-169,19,-32,38.583,36.000,100623,-940.37,473
75,-67,2131,-166,16,-33,38.562,36.000,100623,-940.37,11173
64,-65,2128,-170,20,-29,38.568,36.000,100623,-940.37,499
69,-80,2089,-167,20,-34,38.601,36.000,100623,-940.37,483
64,-78,2142,-173,20,-25,38.586,36.000,100623,-940.37,477
79,-83,2140,-168,14,-30,38.559,36.000,100623,-940.37,473
72,-77,2139,-171,17,-33,38.556,36.000,100629,-940.88,11177
65,-82,2119,-164,15,-30,38.568,36.000,100629,-940.88,516
69,-79,2126,-169,21,-36,38.574,36.000,100629,-940.88,484
76,-73,2146,-170,12,-32,38.548,36.000,100629,-940.88,477
82,-63,2158,-168,18,-31,38.551,36.000,100629,-940.88,473
67,-91,2116,-168,17,-32,38.542,36.000,100614,-939.60,11173
86,-75,2143,-168,16,-35,38.556,36.000,100614,-939.60,498
73,-80,2141,-172,20,-34,38.583,36.000,100614,-939.60,483
93,-68,2132,-167,14,-33,38.551,36.000,100614,-939.60,477
87,-76,2143,-170,20,-33,38.577,36.000,100614,-939.60,473
85,-75,2127,-168,9,-28,38.559,36.000,100629,-940.88,11177
78,-83,2124,-174,21,-26,38.548,36.000,100629,-940.88,515
88,-87,2150,-167,20,-26,38.562,36.000,100629,-940.88,484
86,-72,2126,-174,28,-27,38.568,36.000,100629,-940.88,477
83,-86,2121,-163,12,-31,38.574,36.000,100629,-940.88,473
86,-93,2139,-171,23,-27,38.542,36.000,100623,-940.37,11173
76,-97,2120,-165,17,-31,38.554,36.000,100623,-940.37,514
76,-88,2134,-172,28,-32,38.577,36.000,100623,-940.37,483
81,-106,2158,-166,14,-30,38.589,36.000,100623,-940.37,477
80,-76,2146,-171,21,-30,38.539,36.000,100623,-940.37,473
68,-85,2130,-166,18,-32,38.571,36.000,100626,-940.63,11177
65,-72,2131,-169,28,-30,38.580,36.000,100626,-940.63,501
64,-67,2134,-164,10,-31,38.559,36.000,100626,-940.63,484
74,-71,2131,-171,19,-34,38.559,36.000,100626,-940.63,477
73,-80,2127,-167,13,-30,38.524,36.000,100626,-940.63,473
65,-78,2142,-173,22,-35,38.524,36.000,100629,-940.88,11172
65,-69,2117,-161,9,-27,38.562,36.000,100629,-940.88,499
74,-64,2117,-177,27,-29,38.554,36.000,100629,-940.88,483
80,-62,2138,-162,6,-27,38.539,36.000,100629,-940.88,477
63,-67,2138,-182,34,-28,38.574,36.000,100629,-940.88,473
69,-72,2140,-166,14,-36,38.568,35.900,100620,-940.12,11177
76,-71,2132,-171,21,-34,38.559,35.900,100620,-940.12,503
75,-72,2117,-169,18,-34,38.533,35.900,100620,-940.12,484
79,-69,2137,-161,3,-33,38.559,35.900,100620,-940.12,477
62,-75,2111,-175,25,-30,38.562,35.900,100620,-940.12,473
75,-87,2148,-162,11,-35,38.562,36.000,100632,-941.14,11173
82,-75,2114,-176,27,-34,38.548,36.000,100632,-941.14,513
63,-77,2130,-163,9,-35,38.530,36.000,100632,-941.14,483
80,-84,2130,-167,19,-35,38.548,36.000,100632,-941.14,477
82,-76,2101,-174,21,-32,38.580,36.000,100632,-941.14,473
89,-78,2148,-163,6,-31,38.542,36.000,100623,-940.37,11177
77,-85,2156,-166,14,-32,38.551,36.000,100623,-940.37,518
74,-86,2128,-166,12,-36,38.554,36.000,100623,-940.37,484
93,-63,2128,-175,23,-29,38.568,36.000,100623,-940.37,477
83,-91,2150,-166,16,-32,38.554,36.000,100623,-940.37,473
97,-87,2148,-172,21,-35,38.554,36.000,100626,-940.63,11172
91,-71,2132,-166,12,-29,38.592,36.000,100626,-940.63,515
78,-76,2136,-170,19,-32,38.548,36.000,100626,-940.63,483
91,-87,2131,-170,12,-32,38.554,36.000,100626,-940.63,477
72,-64,2128,-167,13,-33,38.539,36.000,100626,-940.63,473
61,-81,2144,-168,11,-29,38.577,36.000,100632,-941.14,11177
77,-75,2139,-173,18,-29,38.554,36.000,100632,-941.14,513
68,-79,2128,-173,25,-29,38.530,36.000,100632,-941.14,484
83,-84,2149,-169,21,-27,38.551,36.000,100632,-941.14,477
80,-72,2138,-167,17,-31,38.542,36.000,100632,-941.14,473
69,-77,2158,-166,14,-32,38.548,35.900,100617,-939.86,11173
91,-70,2113,-167,20,-28,38.536,35.900,100617,-939.86,513
81,-89,2131,-171,23,-35,38.542,35.900,100617,-939.86,483
80,-62,2142,-167,15,-32,38.521,35.900,100617,-939.86,477
75,-77,2115,-169,16,-31,38.556,35.900,100617,-939.86,473
74,-95,2135,-170,18,-32,38.554,35.900,100623,-940.37,11177
74,-94,2157,-171,16,-30,38.568,35.900,100623,-940.37,517
59,-84,2125,-169,13,-33,38.530,35.900,100623,-940.37,484
80,-90,2117,-168,20,-32,38.542,35.900,100623,-940.37,477
82,-77,2149,-168,15,-29,38.548,35.900,100623,-940.37,473
65,-79,2124,-166,16,-32,38.571,35.900,100626,-940.63,11173
86,-97,2113,-170,18,-33,38.559,35.900,100626,-940.63,499
68,-89,2120,-171,20,-28,38.580,35.900,100626,-940.63,483
81,-79,2105,-168,17,-32,38.554,35.900,100626,-940.63,477
90,-86,2134,-171,24,-32,38.548,35.900,100626,-940.63,473
80,-81,2145,-167,18,-31,38.580,35.900,100626,-940.63,11177
69,-82,2150,-169,19,-32,38.580,35.900,100626,-940.63,502
80,-78,2148,-164,15,-32,38.542,35.900,100626,-940.63,484
94,-61,2097,-169,19,-34,38.565,35.900,100626,-940.63,477
68,-79,2160,-162,12,-34,38.583,35.900,100626,-940.63,473
79,-79,2143,-177,34,-34,38.527,35.900,100623,-940.37,11173
74,-67,2144,-164,10,-28,38.583,35.900,100623,-940.37,513
72,-59,2141,-172,24,-31,38.518,35.900,100623,-940.37,483
70,-88,2157,-165,8,-28,38.571,35.900,100623,-940.37,477
89,-74,2115,-174,29,-29,38.554,35.900,100623,-940.37,473
67,-71,2110,-163,13,-33,38.559,35.900,100617,-939.86,11177
70,-88,2157,-169,17,-28,38.568,35.900,100617,-939.86,520
62,-85,2110,-172,23,-32,38.595,35.900,100617,-939.86,484
74,-75,2140,-160,9,-30,38.562,35.900,100617,-939.86,477
73,-90,2141,-176,26,-32,38.565,35.900,100617,-939.86,473
69,-80,2146,-170,21,-30,38.542,35.900,100626,-940.63,11172
90,-82,2136,-169,16,-31,38.539,35.900,100626,-940.63,511
68,-89,2148,-171,23,-34,38.577,35.900,100626,-940.63,483
64,-83,2136,-169,21,-33,38.556,35.900,100626,-940.63,477
78,-85,2138,-169,16,-38,38.565,35.900,100626,-940.63,473
82,-82,2121,-169,17,-35,38.562,35.900,100623,-940.37,11177
81,-94,2146,-170,15,-33,38.571,35.900,100623,-940.37,514
73,-81,2129,-170,15,-34,38.574,35.900,100623,-940.37,484
61,-73,2124,-169,14,-28,38.536,35.900,100623,-940.37,476
81,-73,2126,-173,20,-33,38.536,35.900,100623,-940.37,473
79,-66,2116,-165,8,-32,38.601,35.900,100629,-940.88,11173
53,-88,2134,-169,20,-29,38.548,35.900,100629,-940.88,497
76,-61,2130,-164,16,-25,38.542,35.900,100629,-940.88,483
62,-82,2142,-172,27,-28,38.589,35.900,100629,-940.88,477
84,-57,2102,-167,19,-35,38.554,35.900,100629,-940.88,473
60,-74,2168,-172,25,-34,38.533,35.900,100632,-941.14,11177
76,-72,2097,-167,16,-29,38.533,35.900,100632,-941.14,504
65,-88,2130,-179,27,-28,38.539,35.900,100632,-941.14,484
105,-78,2118,-166,10,-32,38.554,35.900,100632,-941.14,477
64,-94,2128,-170,21,-29,38.551,35.900,100632,-941.14,473
74,-87,2124,-160,6,-32,38.539,35.900,100623,-940.37,11172
63,-89,2136,-173,26,-30,38.562,35.900,100623,-940.37,495
77,-80,2130,-162,11,-36,38.536,35.900,100623,-940.37,483
85,-89,2140,-170,23,-38,38.536,35.900,100623,-940.37,477
86,-82,2127,-167,15,-32,38.551,35.900,100623,-940.37,473
72,-71,2146,-166,16,-38,38.518,35.900,100623,-940.37,11176
82,-75,2124,-169,12,-28,38.548,35.900,100623,-940.37,517
74,-74,2135,-169,17,-34,38.542,35.900,100623,-940.37,484
72,-66,2133,-170,14,-31,38.554,35.900,100623,-940.37,477
81,-59,2112,-169,21,-33,38.568,35.900,100623,-940.37,473
77,-69,2125,-170,12,-34,38.542,35.900,100620,-940.12,11172
86,-60,2152,-172,19,-29,38.536,35.900,100620,-940.12,515
78,-60,2113,-165,17,-27,38.571,35.900,100620,-940.12,482
83,-75,2098,-170,24,-27,38.518,35.900,100620,-940.12,477
89,-83,2133,-164,17,-24,38.565,35.900,100620,-940.12,473
78,-88,2127,-170,24,-31,38.527,35.900,100623,-940.37,11177
75,-77,2141,-166,15,-30,38.577,35.900,100623,-940.37,517
86,-90,2109,-172,23,-31,38.568,35.900,100623,-940.37,484
70,-95,2137,-167,16,-27,38.521,35.900,100623,-940.37,477
72,-81,2130,-169,21,-27,38.530,35.900,100623,-940.37,473
79,-89,2129,-166,14,-29,38.551,35.900,100632,-941.14,11173
66,-73,2143,-174,22,-34,38.554,35.900,100632,-941.14,515
75,-88,2117,-164,13,-36,38.521,35.900,100632,-941.14,483
77,-70,2140,-168,23,-35,38.542,35.900,100632,-941.14,477
66,-75,2124,-167,14,-36,38.512,35.900,100632,-941.14,473
78,-89,2134,-173,21,-30,38.556,35.900,100629,-940.88,11177
82,-81,2136,-167,15,-33,38.574,35.900,100629,-940.88,506
77,-75,2137,-169,20,-34,38.545,35.900,100629,-940.88,484
78,-86,2132,-167,14,-30,38.521,35.900,100629,-940.88,477
79,-70,2101,-167,14,-28,38.577,35.900,100629,-940.88,473
60,-72,2131,-167,16,-30,38.562,35.900,100626,-940.63,11173
80,-84,2122,-172,22,-31,38.539,35.900,100626,-940.63,495
75,-70,2130,-168,12,-34,38.559,35.900,100626,-940.63,483
74,-74,2125,-167,13,-27,38.562,35.900,100626,-940.63,477
82,-91,2119,-170,22,-29,38.554,35.900,100626,-940.63,473
70,-75,2159,-168,20,-33,38.533,35.900,100626,-940.63,11177
82,-75,2127,-163,11,-33,38.568,35.900,100626,-940.63,516
74,-71,2161,-176,25,-34,38.559,35.900,100626,-940.63,484
92,-66,2111,-171,15,-34,38.551,35.900,100626,-940.63,477
78,-81,2138,-168,18,-28,38.548,35.900,100626,-940.63,473
62,-67,2111,-168,17,-30,38.556,35.900,100632,-941.14,11172
82,-77,2136,-173,25,-32,38.521,35.900,100632,-941.14,515
78,-69,2120,-169,20,-29,38.539,35.900,100632,-941.14,483
77,-89,2119,-169,19,-32,38.530,35.900,100632,-941.14,476
81,-90,2116,-164,11,-30,38.556,35.900,100632,-941.14,473
76,-85,2136,-179,31,-29,38.554,35.900,100629,-940.88,11177
85,-87,2116,-166,10,-32,38.562,35.900,100629,-940.88,518
79,-73,2107,-172,20,-31,38.586,35.900,100629,-940.88,484
86,-85,2137,-169,13,-35,38.559,35.900,100629,-940.88,477
76,-93,2138,-167,18,-31,38.512,35.900,100629,-940.88,473
68,-96,2124,-168,15,-32,38.556,35.900,100632,-941.14,11173
77,-74,2133,-168,18,-35,38.533,35.900,100632,-941.14,499
86,-59,2124,-168,24,-28,38.548,35.900,100632,-941.14,482
76,-71,2125,-163,16,-33,38.565,35.900,100632,-941.14,476
40,-99,2146,-169,14,-36,38.539,35.900,100632,-941.14,473
15,-107,2187,-192,56,-38,38.542,35.900,100623,-940.37,11177
52,-85,2132,-186,43,-39,38.545,35.900,100623,-940.37,502
70,-71,2131,-164,14,-32,38.542,35.900,100623,-940.37,484
30,-104,2152,-164,7,-34,38.530,35.900,100623,-940.37,476
76,-67,2147,-179,28,-30,38.536,35.900,100623,-940.37,473
115,-75,2102,-177,28,-30,38.533,35.900,100629,-940.88,11173
90,-83,2106,-193,53,-36,38.551,35.900,100629,-940.88,501
125,-60,2120,-157,-2,-34,38.527,35.900,100629,-940.88,482
44,-80,2130,-165,13,-29,38.536,35.900,100629,-940.88,476
57,-86,2128,-174,28,-36,38.536,35.900,100629,-940.88,473
98,-79,2111,-176,31,-31,38.559,35.900,100629,-940.88,11177
105,-74,2126,-165,13,-34,38.539,35.900,100629,-940.88,515
59,-79,2135,-161,9,-33,38.551,35.900,100629,-940.88,484
72,-83,2125,-179,31,-33,38.551,35.900,100629,-940.88,477
80,-66,2131,-169,18,-31,38.580,35.900,100629,-940.88,473
74,-89,2150,-171,24,-31,38.586,35.900,100626,-940.63,11173
68,-79,2116,-163,11,-36,38.574,35.900,100626,-940.63,506
77,-67,2125,-173,22,-33,38.556,35.900,100626,-940.63,483
53,-92,2152,-164,14,-32,38.571,35.900,100626,-940.63,477
49,-88,2144,-139,-20,-29,38.548,35.900,100626,-940.63,473
52,-94,2133,-176,32,-30,38.530,35.900,100629,-940.88,11177
70,-75,2133,-173,24,-31,38.556,35.900,100629,-940.88,518
116,-48,2116,-178,25,-31,38.592,35.900,100629,-940.88,484
119,-47,2105,-150,-13,-23,38.562,35.900,100629,-940.88,477
60,-88,2118,-164,11,-35,38.565,35.900,100629,-940.88,473
61,-84,2150,-181,40,-36,38.545,35.900,100629,-940.88,11173
88,-73,2135,-183,38,-38,38.518,35.900,100629,-940.88,514
99,-68,2097,-160,5,-33,38.542,35.900,100629,-940.88,483
62,-74,2143,-162,7,-32,38.562,35.900,100629,-940.88,477
74,-78,2153,-174,26,-37,38.574,35.900,100629,-940.88,473
90,-67,2156,-171,20,-31,38.577,35.900,100629,-940.88,11177
70,-61,2126,-168,15,-30,38.568,35.900,100629,-940.88,502
56,-79,2123,-168,18,-30,38.583,35.900,100629,-940.88,484
80,-61,2102,-171,18,-33,38.559,35.900,100629,-940.88,477
67,-68,2137,-169,19,-32,38.554,35.900,100629,-940.88,473
71,-81,2145,-167,19,-33,38.562,35.900,100620,-940.12,11173
71,-72,2114,-166,16,-32,38.574,35.900,100620,-940.12,499
81,-73,2135,-166,20,-33,38.565,35.900,100620,-940.12,483
75,-71,2140,-171,20,-34,38.586,35.900,100620,-940.12,477
73,-82,2139,-168,15,-32,38.530,35.900,100620,-940.12,473
70,-88,2135,-170,19,-30,38.574,35.900,100629,-940.88,11177
75,-76,2139,-170,19,-31,38.559,35.900,100629,-940.88,501
67,-87,2164,-168,20,-32,38.542,35.900,100629,-940.88,484
74,-93,2148,-172,19,-33,38.559,35.900,100629,-940.88,477
82,-82,2129,-168,15,-33,38.574,35.900,100629,-940.88,473
79,-76,2146,-167,20,-31,38.565,35.900,100623,-940.37,11173
81,-92,2113,-171,21,-33,38.559,35.900,100623,-940.37,514
76,-86,2134,-166,13,-35,38.548,35.900,100623,-940.37,482
68,-91,2130,-172,20,-31,38.527,35.900,100623,-940.37,477
69,-83,2142,-166,17,-33,38.565,35.900,100623,-940.37,473
83,-68,2112,-171,20,-37,38.586,35.900,100626,-940.63,11177
74,-74,2123,-170,19,-34,38.548,35.900,100626,-940.63,505
83,-73,2133,-168,13,-39,38.548,35.900,100626,-940.63,484
69,-79,2155,-170,23,-31,38.515,35.900,100626,-940.63,477
84,-71,2137,-168,16,-32,38.571,35.900,100626,-940.63,473
92,-76,2145,-165,16,-33,38.559,35.900,100620,-940.12,11173
92,-65,2109,-167,15,-32,38.562,35.900,100620,-940.12,505
73,-70,2123,-166,17,-32,38.548,35.900,100620,-940.12,483
70,-70,2102,-168,12,-33,38.533,35.900,100620,-940.12,477
80,-76,2134,-176,30,-30,38.586,35.900,100620,-940.12,473
77,-75,2119,-164,9,-33,38.539,35.900,100629,-940.88,11176
72,-79,2137,-172,22,-34,38.548,35.900,100629,-940.88,519
68,-86,2128,-165,10,-28,38.548,35.900,100629,-940.88,484
78,-85,2118,-174,28,-31,38.559,35.900,100629,-940.88,477
77,-93,2130,-170,15,-30,38.574,35.900,100629,-940.88,473
79,-86,2143,-173,25,-31,38.574,35.900,100629,-940.88,11173
83,-70,2139,-167,13,-29,38.533,35.900,100629,-940.88,516
92,-84,2129,-172,20,-31,38.583,35.900,100629,-940.88,483
64,-87,2126,-168,14,-32,38.545,35.900,100629,-940.88,477
69,-76,2125,-170,21,-32,38.562,35.900,100629,-940.88,473
65,-78,2124,-169,16,-31,38.568,35.900,100626,-940.63,11177
80,-72,2132,-170,23,-27,38.571,35.900,100626,-940.63,502
74,-80,2136,-168,20,-28,38.545,35.900,100626,-940.63,484
75,-82,2148,-170,22,-31,38.536,35.900,100626,-940.63,477
60,-79,2118,-170,20,-29,38.595,35.900,100626,-940.63,473
73,-82,2104,-170,21,-31,38.556,35.900,100626,-940.63,11172
81,-69,2131,-169,13,-30,38.536,35.900,100626,-940.63,498
94,-76,2138,-172,19,-27,38.545,35.900,100626,-940.63,483
82,-77,2138,-165,15,-35,38.571,35.900,100626,-940.63,477
86,-85,2139,-168,18,-32,38.586,35.900,100626,-940.63,473
77,-75,2151,-165,17,-34,38.565,35.900,100632,-941.14,11177
79,-70,2131,-172,21,-29,38.571,35.900,100632,-941.14,517
76,-78,2133,-165,17,-32,38.586,35.900,100632,-941.14,484
84,-66,2113,-166,19,-32,38.592,35.900,100632,-941.14,477
60,-78,2122,-171,20,-32,38.574,35.900,100632,-941.14,473
88,-80,2123,-167,16,-30,38.586,35.900,100629,-940.88,11173
79,-68,2130,-167,20,-34,38.580,35.900,100629,-940.88,495
90,-70,2134,-171,21,-29,38.592,35.900,100629,-940.88,482
60,-86,2114,-167,17,-33,38.559,35.900,100629,-940.88,477
79,-74,2127,-172,16,-33,38.568,35.900,100629,-940.88,473
66,-81,2115,-170,16,-30,38.559,35.900,100626,-940.63,11177
104,-85,2107,-171,21,-30,38.598,35.900,100626,-940.63,517
79,-80,2129,-166,19,-33,38.562,35.900,100626,-940.63,484
71,-80,2140,-168,16,-32,38.583,35.900,100626,-940.63,477
72,-78,2140,-172,20,-32,38.589,35.900,100626,-940.63,473
92,-77,2142,-168,19,-34,38.568,35.900,100638,-941.65,11172
78,-71,2145,-167,19,-32,38.595,35.900,100638,-941.65,497
76,-68,2119,-167,13,-31,38.545,35.900,100638,-941.65,483
89,-71,2135,-167,21,-29,38.559,35.900,100638,-941.65,477
73,-70,2125,-167,18,-33,38.592,35.900,100638,-941.65,473
78,-72,2124,-176,25,-34,38.562,35.900,100629,-940.88,11176
82,-81,2136,-175,27,-31,38.580,35.900,100629,-940.88,501
70,-75,2128,-165,15,-30,38.606,35.900,100629,-940.88,484
66,-80,2131,-173,23,-33,38.592,35.900,100629,-940.88,477
61,-80,2121,-166,10,-30,38.589,35.900,100629,-940.88,473
74,-79,2151,-174,19,-28,38.580,35.900,100623,-940.37,11172
90,-92,2110,-168,12,-32,38.559,35.900,100623,-940.37,498
80,-60,2135,-172,23,-34,38.562,35.900,100623,-940.37,483
79,-87,2127,-168,17,-34,38.583,35.900,100623,-940.37,477
71,-70,2108,-168,17,-34,38.598,35.900,100623,-940.37,473
79,-87,2132,-168,20,-33,38.556,35.900,100632,-941.14,11176
92,-79,2132,-170,18,-34,38.556,35.900,100632,-941.14,502
65,-78,2116,-171,13,-33,38.571,35.900,100632,-941.14,484
93,-66,2120,-169,20,-32,38.568,35.900,100632,-941.14,477
67,-62,2149,-164,5,-33,38.598,35.900,100632,-941.14,473
92,-68,2112,-178,26,-31,38.533,35.900,100629,-940.88,11173
72,-63,2119,-169,16,-31,38.536,35.900,100629,-940.88,512
77,-71,2116,-173,19,-30,38.580,35.900,100629,-940.88,483
82,-87,2150,-169,15,-32,38.574,35.900,100629,-940.88,477
78,-78,2117,-169,18,-28,38.574,35.900,100629,-940.88,473
71,-75,2116,-166,15,-28,38.574,35.900,100635,-941.40,11177
61,-99,2141,-170,23,-30,38.568,35.900,100635,-941.40,516
72,-93,2114,-167,12,-30,38.583,35.900,100635,-941.40,484
71,-96,2136,-177,25,-32,38.571,35.900,100635,-941.40,477
76,-91,2155,-167,16,-29,38.592,35.900,100635,-941.40,473
73,-63,2145,-171,20,-32,38.568,35.900,100635,-941.40,11173
70,-77,2129,-168,17,-33,38.598,35.900,100635,-941.40,514
90,-68,2117,-165,10,-29,38.583,35.900,100635,-941.40,483
70,-86,2119,-167,19,-34,38.548,35.900,100635,-941.40,477
74,-81,2123,-165,11,-28,38.586,35.900,100635,-941.40,473
78,-91,2140,-176,27,-33,38.589,35.900,100632,-941.14,11176
91,-85,2115,-164,7,-33,38.577,35.900,100632,-941.14,502
70,-64,2132,-174,27,-31,38.559,35.900,100632,-941.14,484
90,-75,2140,-167,15,-32,38.589,35.900,100632,-941.14,477
79,-65,2126,-172,23,-34,38.615,35.900,100632,-941.14,473
60,-80,2165,-168,11,-35,38.571,35.900,100623,-940.37,11173
68,-80,2133,-173,28,-36,38.559,35.900,100623,-940.37,497
73,-76,2110,-165,14,-31,38.595,35.900,100623,-940.37,483
84,-64,2133,-172,21,-30,38.533,35.900,100623,-940.37,477
70,-68,2109,-170,19,-33,38.568,35.900,100623,-940.37,473
92,-80,2132,-169,18,-32,38.568,35.900,100626,-940.63,11177
67,-80,2133,-169,27,-34,38.604,35.900,100626,-940.63,500
68,-76,2099,-169,18,-34,38.586,35.900,100626,-940.63,484
81,-92,2147,-169,21,-29,38.589,35.900,100626,-940.63,477
74,-87,2134,-165,12,-37,38.583,35.900,100626,-940.63,473
85,-60,2132,-177,26,-33,38.589,35.900,100626,-940.63,11172
74,-66,2107,-163,7,-29,38.548,35.900,100626,-940.63,500
80,-56,2138,-174,30,-31,38.589,35.900,100626,-940.63,483
71,-70,2138,-161,8,-28,38.604,35.900,100626,-940.63,476
70,-86,2124,-174,28,-31,38.556,35.900,100626,-940.63,473
83,-96,2140,-164,10,-28,38.577,35.900,100614,-939.60,11177
85,-76,2125,-176,28,-34,38.559,35.900,100614,-939.60,503
66,-94,2143,-162,7,-28,38.556,35.900,100614,-939.60,484
96,-80,2118,-176,31,-34,38.559,35.900,100614,-939.60,476
93,-78,2129,-164,15,-31,38.545,35.900,100614,-939.60,473
87,-92,2114,-172,22,-38,38.548,35.900,100626,-940.63,11173
73,-93,2121,-165,13,-32,38.536,35.900,100626,-940.63,513
86,-71,2139,-171,20,-33,38.562,35.900,100626,-940.63,483
73,-86,2135,-168,18,-34,38.583,35.900,100626,-940.63,477
65,-73,2132,-171,18,-31,38.545,35.900,100626,-940.63,473
67,-73,2138,-169,19,-30,38.565,35.900,100629,-940.88,11177
69,-66,2128,-168,19,-29,38.571,35.900,100629,-940.88,517
71,-76,2114,-170,20,-31,38.586,35.900,100629,-940.88,484
73,-47,2128,-168,17,-32,38.592,35.900,100629,-940.88,477
73,-46,2141,-169,14,-31,38.589,35.900,100629,-940.88,473
74,-81,2123,-172,18,-28,38.562,35.900,100626,-940.63,11173
69,-84,2129,-172,17,-32,38.565,35.900,100626,-940.63,498
84,-89,2102,-174,19,-34,38.592,35.900,100626,-940.63,483
99,-93,2113,-166,19,-27,38.583,35.900,100626,-940.63,477
79,-103,2108,-169,22,-35,38.565,35.900,100626,-940.63,473
82,-101,2127,-174,24,-38,38.559,35.900,100623,-940.37,11177
80,-101,2143,-164,11,-34,38.536,35.900,100623,-940.37,502
64,-85,2133,-171,24,-36,38.562,35.900,100623,-940.37,484
74,-78,2139,-165,11,-38,38.559,35.900,100623,-940.37,477
59,-81,2126,-170,21,-36,38.551,35.900,100623,-940.37,473
66,-74,2142,-165,12,-31,38.571,35.900,100626,-940.63,11172
70,-72,2143,-168,12,-32,38.577,35.900,100626,-940.63,498
75,-68,2121,-166,16,-31,38.562,35.900,100626,-940.63,483
74,-68,2118,-171,20,-36,38.580,35.900,100626,-940.63,477
89,-67,2122,-166,18,-33,38.586,35.900,100626,-940.63,473
76,-76,2152,-169,20,-32,38.574,35.900,100629,-940.88,11177
86,-76,2126,-167,16,-31,38.556,35.900,100629,-940.88,510
82,-75,2148,-169,16,-33,38.539,35.900,100629,-940.88,484
76,-84,2158,-167,15,-30,38.551,35.900,100629,-940.88,477
76,-84,2148,-170,27,-31,38.548,35.900,100629,-940.88,473
87,-70,2125,-167,17,-27,38.612,35.900,100626,-940.63,11173
84,-78,2126,-173,25,-31,38.562,35.900,100626,-940.63,512
64,-83,2133,-168,18,-30,38.548,35.900,100626,-940.63,483
74,-71,2110,-171,28,-33,38.551,35.900,100626,-940.63,477
63,-74,2115,-168,21,-32,38.554,35.900,100626,-940.63,473
72,-85,2099,-167,20,-28,38.559,35.900,100623,-940.37,11177
78,-81,2127,-165,14,-27,38.556,35.900,100623,-940.37,517
69,-97,2129,-171,20,-36,38.554,35.900,100623,-940.37,484
72,-83,2140,-170,14,-32,38.545,35.900,100623,-940.37,477
78,-86,2106,-169,19,-33,38.580,35.900,100623,-940.37,473
83,-81,2122,-161,3,-39,38.565,35.900,100635,-941.40,11173
71,-94,2138,-173,25,-34,38.568,35.900,100635,-941.40,512
62,-90,2139,-162,6,-33,38.539,35.900,100635,-941.40,483
84,-67,2124,-174,28,-29,38.589,35.900,100635,-941.40,477
83,-67,2144,-165,8,-33,38.565,35.900,100635,-941.40,473
70,-67,2106,-171,24,-35,38.533,35.900,100623,-940.37,11177
84,-73,2144,-162,4,-32,38.589,35.900,100623,-940.37,503
91,-58,2095,-178,37,-29,38.580,35.900,100623,-940.37,484
73,-72,2150,-152,-6,-29,38.577,35.900,100623,-940.37,477
101,-64,2106,-187,43,-31,38.559,35.900,100623,-940.37,473
69,-77,2144,-156,0,-31,38.536,35.900,100635,-941.40,11173
88,-74,2120,-179,39,-29,38.562,35.900,100635,-941.40,510
62,-86,2156,-164,12,-30,38.574,35.900,100635,-941.40,483
89,-88,2135,-166,22,-28,38.533,35.900,100635,-941.40,477
61,-79,2123,-171,24,-32,38.562,35.900,100635,-941.40,473
72,-82,2124,-163,15,-32,38.580,35.900,100629,-940.88,11177
68,-91,2139,-170,23,-32,38.562,35.900,100629,-940.88,504
70,-79,2118,-165,13,-31,38.548,35.900,100629,-940.88,484
58,-90,2118,-176,30,-24,38.562,35.900,100629,-940.88,477
56,-70,2137,-164,11,-27,38.548,35.900,100629,-940.88,473
68,-76,2137,-172,19,-35,38.559,35.900,100629,-940.88,11173
65,-85,2124,-167,13,-33,38.586,35.900,100629,-940.88,516
78,-74,2147,-176,24,-35,38.577,35.900,100629,-940.88,483
71,-79,2128,-167,10,-31,38.571,35.900,100629,-940.88,477
68,-59,2130,-174,18,-32,38.586,35.900,100629,-940.88,473
81,-71,2131,-164,7,-34,38.574,35.900,100632,-941.14,11177
87,-74,2143,-173,19,-32,38.601,35.900,100632,-941.14,516
73,-93,2128,-166,14,-33,38.559,35.900,100632,-941.14,484
77,-49,2135,-166,18,-34,38.571,35.900,100632,-941.14,477
82,-73,2136,-167,18,-32,38.568,35.900,100632,-941.14,473
83,-69,2128,-168,19,-36,38.542,35.900,100629,-940.88,11173
82,-73,2136,-168,15,-29,38.551,35.900,100629,-940.88,514
75,-61,2134,-172,19,-30,38.577,35.900,100629,-940.88,483
80,-79,2138,-167,12,-30,38.545,35.900,100629,-940.88,477
80,-79,2127,-171,20,-30,38.565,35.900,100629,-940.88,473
82,-81,2126,-169,20,-29,38.539,35.800,100620,-940.12,11177
81,-86,2117,-169,25,-30,38.565,35.800,100620,-940.12,502
75,-91,2122,-171,20,-31,38.565,35.800,100620,-940.12,484
85,-87,2141,-169,19,-30,38.574,35.800,100620,-940.12,477
72,-105,2114,-171,18,-31,38.598,35.800,100620,-940.12,473
80,-84,2126,-168,18,-31,38.542,35.900,100632,-941.14,11173
87,-91,2148,-170,18,-29,38.598,35.900,100632,-941.14,499
69,-92,2136,-167,13,-35,38.589,35.900,100632,-941.14,483
75,-75,2137,-169,18,-33,38.592,35.900,100632,-941.14,477
84,-73,2132,-168,19,-32,38.568,35.900,100632,-941.14,473
86,-72,2133,-166,15,-34,38.598,35.800,100620,-940.12,11177
89,-75,2136,-167,14,-37,38.580,35.800,100620,-940.12,502
84,-63,2125,-167,14,-30,38.551,35.800,100620,-940.12,484
78,-59,2117,-167,15,-34,38.565,35.800,100620,-940.12,477
81,-71,2134,-172,19,-31,38.548,35.800,100620,-940.12,473
76,-59,2135,-168,16,-29,38.568,35.900,100632,-941.14,11173
77,-72,2128,-170,18,-31,38.565,35.900,100632,-941.14,515
81,-54,2137,-165,19,-29,38.589,35.900,100632,-941.14,482
84,-78,2116,-172,19,-30,38.568,35.900,100632,-941.14,477
80,-87,2123,-169,18,-31,38.556,35.900,100632,-941.14,473
83,-78,2125,-171,19,-31,38.548,35.800,100623,-940.37,11176
69,-72,2127,-168,17,-30,38.580,35.800,100623,-940.37,517
77,-81,2107,-170,19,-33,38.554,35.800,100623,-940.37,484
78,-94,2123,-170,19,-31,38.571,35.800,100623,-940.37,477
83,-95,2119,-170,20,-32,38.568,35.800,100623,-940.37,473
76,-89,2105,-169,16,-30,38.574,35.800,100629,-940.88,11172
60,-93,2125,-167,14,-30,38.562,35.800,100629,-940.88,514
75,-79,2142,-171,17,-33,38.530,35.800,100629,-940.88,483
71,-106,2134,-168,22,-30,38.571,35.800,100629,-940.88,477
86,-88,2116,-168,16,-32,38.542,35.800,100629,-940.88,473
76,-80,2135,-166,19,-34,38.542,35.800,100623,-940.37,11177
86,-80,2127,-167,17,-29,38.583,35.800,100623,-940.37,514
83,-92,2155,-169,17,-31,38.536,35.800,100623,-940.37,484
72,-81,2137,-170,19,-30,38.565,35.800,100623,-940.37,477
83,-84,2131,-168,13,-33,38.571,35.800,100623,-940.37,473
68,-78,2146,-170,20,-31,38.574,35.800,100620,-940.12,11172
77,-80,2133,-167,16,-34,38.574,35.800,100620,-940.12,500
79,-87,2128,-169,16,-33,38.571,35.800,100620,-940.12,482
87,-71,2114,-169,16,-33,38.542,35.800,100620,-940.12,477
63,-74,2130,-173,22,-32,38.518,35.800,100620,-940.12,473
75,-80,2128,-168,16,-30,38.559,35.800,100626,-940.63,11177
55,-78,2108,-170,21,-32,38.527,35.800,100626,-940.63,503
75,-82,2108,-166,10,-33,38.554,35.800,100626,-940.63,484
76,-77,2126,-174,23,-37,38.565,35.800,100626,-940.63,477
61,-80,2148,-169,20,-33,38.589,35.800,100626,-940.63,473
76,-88,2127,-172,20,-34,38.580,35.800,100629,-940.88,11173
77,-67,2129,-170,16,-31,38.559,35.800,100629,-940.88,499
77,-79,2117,-170,18,-31,38.586,35.800,100629,-940.88,483
74,-72,2129,-172,16,-37,38.592,35.800,100629,-940.88,477
81,-61,2128,-170,16,-35,38.559,35.800,100629,-940.88,473
88,-73,2126,-167,16,-37,38.568,35.800,100620,-940.12,11177
80,-69,2108,-169,17,-34,38.577,35.800,100620,-940.12,501
77,-91,2130,-169,16,-36,38.556,35.800,100620,-940.12,484
77,-75,2133,-170,21,-36,38.551,35.800,100620,-940.12,477
74,-64,2151,-168,12,-34,38.533,35.800,100620,-940.12,473
72,-77,2134,-168,20,-32,38.542,35.800,100629,-940.88,11173
75,-88,2108,-167,13,-33,38.609,35.800,100629,-940.88,499
83,-76,2119,-170,21,-32,38.559,35.800,100629,-940.88,483
86,-86,2103,-166,18,-33,38.545,35.800,100629,-940.88,477
83,-86,2132,-170,19,-35,38.533,35.800,100629,-940.88,473
81,-78,2127,-169,17,-33,38.556,35.800,100623,-940.37,11177
84,-87,2102,-170,17,-33,38.554,35.800,100623,-940.37,517
77,-83,2145,-171,20,-33,38.589,35.800,100623,-940.37,484
71,-89,2125,-172,21,-35,38.542,35.800,100623,-940.37,476
76,-70,2133,-167,16,-29,38.604,35.800,100623,-940.37,473
72,-69,2127,-171,18,-31,38.554,35.800,100626,-940.63,11173
74,-80,2152,-170,14,-31,38.598,35.800,100626,-940.63,514
56,-87,2146,-172,24,-32,38.583,35.800,100626,-940.63,483
75,-82,2141,-170,21,-29,38.574,35.800,100626,-940.63,477
84,-74,2117,-168,22,-27,38.559,35.800,100626,-940.63,473
62,-75,2146,-174,19,-30,38.551,35.800,100620,-940.12,11177
86,-68,2134,-165,15,-29,38.554,35.800,100620,-940.12,515
68,-85,2133,-172,22,-31,38.548,35.800,100620,-940.12,484
81,-77,2126,-168,17,-29,38.586,35.800,100620,-940.12,477
87,-75,2146,-169,18,-35,38.556,35.800,100620,-940.12,473
81,-74,2141,-169,19,-32,38.536,35.800,100623,-940.37,11172
89,-74,2149,-172,24,-35,38.551,35.800,100623,-940.37,495
84,-80,2125,-171,20,-33,38.577,35.800,100623,-940.37,483
70,-81,2112,-168,16,-34,38.548,35.800,100623,-940.37,477
75,-76,2120,-170,22,-36,38.556,35.800,100623,-940.37,473
81,-73,2132,-173,19,-33,38.592,35.800,100626,-940.63,11177
90,-82,2133,-167,16,-34,38.559,35.800,100626,-940.63,500
64,-70,2135,-172,23,-39,38.565,35.800,100626,-940.63,484
66,-83,2111,-167,18,-34,38.565,35.800,100626,-940.63,477
82,-96,2143,-172,18,-32,38.524,35.800,100626,-940.63,473
64,-72,2114,-169,19,-33,38.542,35.800,100623,-940.37,11172
84,-76,2117,-167,14,-33,38.568,35.800,100623,-940.37,513
82,-77,2098,-167,19,-38,38.574,35.800,100623,-940.37,483
70,-78,2141,-165,13,-36,38.545,35.800,100623,-940.37,477
75,-81,2099,-170,19,-34,38.586,35.800,100623,-940.37,473
76,-85,2135,-164,15,-37,38.598,35.800,100623,-940.37,11177
88,-87,2153,-172,24,-36,38.595,35.800,100623,-940.37,505
89,-92,2130,-163,11,-30,38.568,35.800,100623,-940.37,484
73,-87,2120,-169,24,-33,38.559,35.800,100623,-940.37,477
76,-87,2139,-168,18,-34,38.554,35.800,100623,-940.37,473
86,-71,2132,-167,18,-30,38.586,35.800,100620,-940.12,11173
74,-72,2120,-166,18,-31,38.580,35.800,100620,-940.12,513
74,-89,2111,-169,23,-33,38.580,35.800,100620,-940.12,483
76,-74,2126,-167,19,-33,38.577,35.800,100620,-940.12,477
67,-74,2136,-167,20,-33,38.601,35.800,100620,-940.12,473
73,-67,2153,-167,10,-33,38.556,35.800,100614,-939.60,11177
58,-67,2125,-171,22,-35,38.548,35.800,100614,-939.60,503
70,-68,2158,-167,17,-29,38.574,35.800,100614,-939.60,484
73,-74,2127,-170,20,-32,38.571,35.800,100614,-939.60,477
73,-82,2149,-166,19,-31,38.565,35.800,100614,-939.60,473
80,-68,2157,-172,23,-29,38.571,35.800,100629,-940.88,11173
74,-76,2127,-173,19,-30,38.565,35.800,100629,-940.88,499
79,-66,2149,-168,12,-30,38.565,35.800,100629,-940.88,483
87,-71,2104,-173,21,-35,38.589,35.800,100629,-940.88,477
86,-60,2127,-165,18,-31,38.580,35.800,100629,-940.88,473
82,-56,2144,-165,11,-31,38.559,35.800,100614,-939.60,11177
77,-56,2161,-171,25,-25,38.592,35.800,100614,-939.60,502
76,-54,2119,-162,5,-28,38.589,35.800,100614,-939.60,484
85,-64,2121,-175,27,-30,38.565,35.800,100614,-939.60,477
85,-63,2123,-168,13,-29,38.583,35.800,100614,-939.60,473
61,-71,2124,-176,30,-27,38.606,35.800,100617,-939.86,11172
79,-69,2138,-167,10,-31,38.545,35.800,100617,-939.86,495
75,-86,2144,-173,27,-27,38.583,35.800,100617,-939.86,483
76,-74,2122,-167,14,-24,38.583,35.800,100617,-939.86,477
73,-69,2141,-170,23,-30,38.574,35.800,100617,-939.86,473
62,-104,2146,-173,23,-29,38.551,35.800,100617,-939.86,11177
79,-74,2136,-168,15,-34,38.539,35.800,100617,-939.86,502
64,-86,2130,-173,23,-31,38.586,35.800,100617,-939.86,484
84,-89,2114,-170,13,-27,38.595,35.800,100617,-939.86,477
81,-77,2120,-169,17,-29,38.577,35.800,100617,-939.86,473
67,-77,2116,-171,18,-31,38.568,35.800,100626,-940.63,11173
78,-63,2145,-173,13,-31,38.595,35.800,100626,-940.63,512
89,-61,2135,-171,21,-27,38.554,35.800,100626,-940.63,482
76,-56,2110,-166,16,-26,38.542,35.800,100626,-940.63,477
76,-66,2137,-170,23,-26,38.592,35.800,100626,-940.63,473
81,-76,2114,-169,19,-21,38.577,35.800,100611,-939.34,11177
79,-95,2135,-170,22,-25,38.536,35.800,100611,-939.34,517
90,-84,2132,-172,15,-29,38.586,35.800,100611,-939.34,484
83,-93,2132,-169,19,-23,38.577,35.800,100611,-939.34,477
91,-95,2153,-172,18,-24,38.574,35.800,100611,-939.34,473
70,-126,2157,-171,16,-30,38.562,35.800,100614,-939.60,11173
91,-104,2111,-173,25,-26,38.551,35.800,100614,-939.60,500
92,-112,2133,-163,4,-29,38.548,35.800,100614,-939.60,483
83,-86,2106,-171,19,-36,38.551,35.800,100614,-939.60,477
65,-108,2148,-166,14,-33,38.571,35.800,100614,-939.60,473
62,-90,2139,-175,27,-34,38.583,35.800,100626,-940.63,11177
63,-92,2134,-166,14,-35,38.574,35.800,100626,-940.63,518
68,-93,2127,-172,25,-34,38.539,35.800,100626,-940.63,484
65,-81,2119,-166,14,-34,38.574,35.800,100626,-940.63,477
54,-79,2123,-166,21,-31,38.545,35.800,100626,-940.63,473
75,-69,2098,-165,19,-36,38.568,35.800,100629,-940.88,11173
60,-81,2127,-170,17,-31,38.577,35.800,100629,-940.88,500
64,-88,2154,-169,15,-30,38.530,35.800,100629,-940.88,483
78,-92,2143,-168,19,-27,38.539,35.800,100629,-940.88,477
81,-106,2131,-163,9,-31,38.568,35.800,100629,-940.88,473
85,-81,2130,-169,19,-32,38.577,35.800,100623,-940.37,11177
80,-78,2139,-169,15,-32,38.545,35.800,100623,-940.37,517
87,-94,2120,-169,21,-30,38.565,35.800,100623,-940.37,484
91,-87,2136,-170,24,-34,38.565,35.800,100623,-940.37,477
84,-82,2116,-162,14,-31,38.551,35.800,100623,-940.37,473
72,-66,2121,-174,25,-34,38.551,35.800,100632,-941.14,11173
88,-70,2122,-167,14,-29,38.521,35.800,100632,-941.14,508
83,-61,2115,-174,20,-29,38.551,35.800,100632,-941.14,483
74,-68,2124,-168,17,-28,38.548,35.800,100632,-941.14,477
64,-78,2123,-167,21,-30,38.545,35.800,100632,-941.14,473
82,-77,2111,-168,16,-24,38.530,35.800,100614,-939.60,11177
71,-86,2134,-173,24,-26,38.551,35.800,100614,-939.60,517
70,-80,2121,-164,10,-25,38.524,35.800,100614,-939.60,484
69,-91,2145,-180,31,-27,38.583,35.800,100614,-939.60,477
69,-85,2144,-163,10,-26,38.551,35.800,100614,-939.60,473
69,-90,2123,-175,31,-30,38.539,35.800,100617,-939.86,11173
68,-95,2130,-163,10,-32,38.556,35.800,100617,-939.86,514
74,-86,2115,-171,22,-32,38.583,35.800,100617,-939.86,483
64,-87,2122,-168,13,-38,38.574,35.800,100617,-939.86,477
74,-94,2126,-171,17,-31,38.551,35.800,100617,-939.86,473
85,-67,2133,-166,11,-37,38.506,35.800,100629,-940.88,11177
69,-81,2132,-172,24,-37,38.551,35.800,100629,-940.88,503
84,-58,2119,-162,9,-34,38.571,35.800,100629,-940.88,484
74,-68,2147,-176,22,-41,38.556,35.800,100629,-940.88,477
87,-49,2124,-166,19,-28,38.527,35.800,100629,-940.88,473
89,-65,2130,-165,8,-31,38.539,35.800,100617,-939.86,11173
77,-52,2118,-174,25,-31,38.539,35.800,100617,-939.86,497
79,-67,2148,-162,16,-29,38.571,35.800,100617,-939.86,483
86,-71,2139,-172,23,-30,38.574,35.800,100617,-939.86,477
85,-74,2135,-170,19,-30,38.554,35.800,100617,-939.86,473
87,-65,2121,-171,20,-27,38.559,35.800,100617,-939.86,11177
67,-77,2134,-168,14,-29,38.568,35.800,100617,-939.86,503
71,-92,2133,-174,21,-27,38.568,35.800,100617,-939.86,484
85,-78,2128,-171,20,-29,38.539,35.800,100617,-939.86,477
69,-88,2118,-171,27,-25,38.551,35.800,100617,-939.86,473
96,-87,2114,-165,9,-26,38.548,35.800,100620,-940.12,11172
58,-100,2149,-174,26,-30,38.548,35.800,100620,-940.12,497
82,-86,2104,-166,18,-30,38.548,35.800,100620,-940.12,482
61,-104,2164,-173,25,-35,38.536,35.800,100620,-940.12,477
82,-89,2147,-162,1,-30,38.562,35.800,100620,-940.12,473
66,-101,2098,-180,43,-35,38.551,35.800,100626,-940.63,11177
101,-77,2094,-155,-14,-34,38.551,35.800,100626,-940.63,505
71,-91,2135,-192,63,-31,38.545,35.800,100626,-940.63,484
75,-83,2140,-145,-22,-38,38.551,35.800,100626,-940.63,477
83,-68,2109,-193,54,-35,38.521,35.800,100626,-940.63,473
55,-76,2141,-148,-20,-32,38.559,35.800,100620,-940.12,11173
81,-61,2090,-184,44,-32,38.548,35.800,100620,-940.12,508
76,-81,2141,-153,-6,-32,38.580,35.800,100620,-940.12,483
100,-81,2117,-173,32,-37,38.527,35.800,100620,-940.12,477
59,-78,2175,-161,4,-31,38.562,35.800,100620,-940.12,473
81,-70,2120,-175,23,-26,38.568,35.800,100623,-940.37,11177
70,-81,2148,-162,11,-33,38.556,35.800,100623,-940.37,517
92,-64,2115,-171,25,-30,38.559,35.800,100623,-940.37,484
81,-98,2122,-166,12,-29,38.556,35.800,100623,-940.37,477
90,-63,2123,-169,16,-32,38.548,35.800,100623,-940.37,473
63,-82,2132,-173,24,-30,38.518,35.800,100620,-940.12,11173
84,-75,2136,-168,14,-34,38.556,35.800,100620,-940.12,499
73,-93,2140,-176,23,-32,38.548,35.800,100620,-940.12,483
86,-86,2141,-163,13,-29,38.515,35.800,100620,-940.12,477
81,-88,2110,-172,26,-31,38.556,35.800,100620,-940.12,473
70,-95,2136,-168,17,-26,38.562,35.800,100617,-939.86,11177
85,-93,2138,-166,17,-30,38.542,35.800,100617,-939.86,501
86,-89,2136,-172,24,-29,38.574,35.800,100617,-939.86,484
84,-101,2110,-168,16,-34,38.571,35.800,100617,-939.86,477
55,-85,2112,-172,22,-33,38.559,35.800,100617,-939.86,473
74,-80,2130,-169,19,-31,38.539,35.800,100623,-940.37,11173
76,-58,2141,-171,20,-36,38.586,35.800,100623,-940.37,499
69,-60,2132,-166,20,-36,38.551,35.800,100623,-940.37,483
78,-66,2136,-164,14,-31,38.545,35.800,100623,-940.37,477
71,-83,2142,-174,25,-30,38.548,35.800,100623,-940.37,473
72,-63,2142,-167,16,-33,38.559,35.800,100617,-939.86,11177
70,-59,2140,-172,18,-33,38.548,35.800,100617,-939.86,517
90,-56,2118,-169,12,-36,38.504,35.800,100617,-939.86,484
71,-71,2130,-167,16,-34,38.551,35.800,100617,-939.86,477
73,-69,2144,-174,20,-29,38.574,35.800,100617,-939.86,473
79,-80,2139,-171,18,-31,38.545,35.800,100617,-939.86,11173
93,-87,2125,-169,17,-34,38.586,35.800,100617,-939.86,513
74,-77,2129,-170,19,-29,38.518,35.800,100617,-939.86,483
64,-71,2164,-171,16,-33,38.548,35.800,100617,-939.86,477
83,-76,2125,-170,17,-31,38.536,35.800,100617,-939.86,473
78,-81,2125,-170,19,-32,38.583,35.800,100623,-940.37,11177
75,-79,2132,-171,22,-33,38.577,35.800,100623,-940.37,518
82,-78,2135,-168,16,-32,38.545,35.800,100623,-940.37,484
74,-73,2131,-171,16,-28,38.568,35.800,100623,-940.37,477
81,-84,2137,-173,23,-33,38.583,35.800,100623,-940.37,473
73,-77,2145,-175,24,-35,38.527,35.800,100617,-939.86,11172
77,-95,2125,-172,23,-34,38.554,35.800,100617,-939.86,515
55,-107,2138,-171,18,-32,38.545,35.800,100617,-939.86,483
68,-105,2153,-170,13,-34,38.548,35.800,100617,-939.86,477
68,-88,2121,-168,18,-34,38.565,35.800,100617,-939.86,473
64,-84,2142,-165,5,-32,38.574,35.800,100620,-940.12,11176
62,-72,2141,-175,28,-30,38.545,35.800,100620,-940.12,504
92,-75,2127,-158,1,-29,38.512,35.800,100620,-940.12,484
82,-70,2124,-178,33,-34,38.559,35.800,100620,-940.12,477
63,-68,2148,-162,3,-31,38.554,35.800,100620,-940.12,473
93,-71,2123,-175,30,-33,38.604,35.800,100629,-940.88,11173
75,-65,2140,-156,1,-27,38.586,35.800,100629,-940.88,515
78,-67,2125,-177,30,-28,38.551,35.800,100629,-940.88,483
94,-63,2140,-161,10,-29,38.589,35.800,100629,-940.88,477
63,-72,2118,-171,28,-33,38.533,35.800,100629,-940.88,473
73,-61,2138,-168,20,-30,38.565,35.800,100617,-939.86,11177
73,-61,2129,-170,21,-31,38.545,35.800,100617,-939.86,517
74,-83,2154,-170,19,-36,38.551,35.800,100617,-939.86,484
85,-64,2115,-165,14,-35,38.565,35.800,100617,-939.86,477
80,-80,2120,-170,22,-29,38.577,35.800,100617,-939.86,473
84,-94,2156,-161,5,-35,38.571,35.800,100620,-940.12,11172
88,-52,2073,-171,17,-30,38.542,35.800,100620,-940.12,497
71,-58,2062,-161,0,-32,38.545,35.800,100620,-940.12,482
57,-65,2140,-174,20,-36,38.568,35.800,100620,-940.12,477
68,-65,2207,-184,41,-31,38.551,35.800,100620,-940.12,473
72,-71,2173,-158,6,-33,38.542,35.800,100617,-939.86,11177
90,-83,2098,-173,15,-30,38.598,35.800,100617,-939.86,519
72,-80,2161,-168,10,-34,38.559,35.800,100617,-939.86,484
89,-79,2121,-168,19,-28,38.562,35.800,100617,-939.86,477
85,-103,2124,-168,17,-34,38.565,35.800,100617,-939.86,473
85,-99,2075,-168,15,-35,38.604,35.800,100629,-940.88,11173
74,-121,2146,-166,18,-33,38.559,35.800,100629,-940.88,515
96,-108,2121,-171,23,-38,38.559,35.800,100629,-940.88,483
66,-116,2147,-175,30,-36,38.586,35.800,100629,-940.88,477
89,-96,2098,-162,8,-39,38.551,35.800,100629,-940.88,473
78,-83,2155,-175,30,-34,38.568,35.800,100626,-940.63,11177
81,-83,2142,-162,7,-36,38.554,35.800,100626,-940.63,502
51,-77,2142,-176,27,-37,38.586,35.800,100626,-940.63,484
87,-68,2149,-163,6,-36,38.580,35.800,100626,-940.63,477
84,-72,2124,-179,42,-35,38.577,35.800,100626,-940.63,473
75,-75,2128,-155,-2,-26,38.598,35.800,100629,-940.88,11173
72,-79,2145,-186,36,-33,38.556,35.800,100629,-940.88,497
65,-80,2166,-152,-9,-32,38.609,35.800,100629,-940.88,483
74,-81,2103,-180,39,-35,38.577,35.800,100629,-940.88,477
63,-101,2155,-161,10,-27,38.548,35.800,100629,-940.88,473
85,-60,2096,-167,19,-31,38.580,35.800,100620,-940.12,11177
60,-76,2131,-165,13,-32,38.562,35.800,100620,-940.12,507
94,-64,2132,-163,12,-32,38.568,35.800,100620,-940.12,484
66,-85,2150,-172,26,-36,38.574,35.800,100620,-940.12,477
81,-64,2127,-164,10,-35,38.595,35.800,100620,-940.12,473
69,-73,2133,-168,14,-29,38.533,35.800,100626,-940.63,11172
86,-53,2134,-170,19,-31,38.577,35.800,100626,-940.63,496
75,-72,2147,-170,17,-30,38.583,35.800,100626,-940.63,482
80,-77,2146,-171,21,-35,38.589,35.800,100626,-940.63,477
70,-72,2137,-173,28,-36,38.604,35.800,100626,-940.63,473
81,-66,2121,-162,8,-33,38.571,35.800,100614,-939.60,11176
72,-82,2118,-177,31,-35,38.580,35.800,100614,-939.60,500
74,-84,2122,-162,12,-33,38.589,35.800,100614,-939.60,484
76,-77,2124,-172,23,-31,38.592,35.800,100614,-939.60,477
76,-77,2158,-167,15,-31,38.601,35.800,100614,-939.60,473
72,-84,2140,-169,13,-26,38.571,35.800,100620,-940.12,11173
75,-91,2137,-167,15,-33,38.586,35.800,100620,-940.12,512
80,-91,2126,-171,18,-35,38.586,35.800,100620,-940.12,482
82,-80,2158,-170,17,-31,38.580,35.800,100620,-940.12,477
75,-84,2131,-171,23,-30,38.586,35.800,100620,-940.12,473
72,-82,2155,-163,15,-31,38.618,35.800,100623,-940.37,11176
78,-81,2122,-172,21,-26,38.571,35.800,100623,-940.37,517
68,-81,2123,-167,18,-31,38.577,35.800,100623,-940.37,484
74,-73,2140,-172,22,-26,38.548,35.800,100623,-940.37,477
78,-86,2107,-166,18,-31,38.589,35.800,100623,-940.37,473
72,-78,2120,-170,22,-26,38.621,35.800,100626,-940.63,11173
63,-78,2156,-168,16,-28,38.556,35.800,100626,-940.63,499
81,-89,2130,-170,25,-31,38.580,35.800,100626,-940.63,483
68,-63,2153,-167,16,-34,38.565,35.800,100626,-940.63,477
78,-76,2145,-171,22,-34,38.574,35.800,100626,-940.63,473
73,-68,2127,-169,16,-35,38.577,35.800,100623,-940.37,11177
66,-71,2123,-169,14,-34,38.589,35.800,100623,-940.37,503
75,-79,2116,-166,14,-36,38.583,35.800,100623,-940.37,484
74,-62,2113,-172,16,-29,38.556,35.800,100623,-940.37,477
83,-73,2097,-168,12,-31,38.589,35.800,100623,-940.37,473
81,-83,2133,-171,18,-28,38.595,35.800,100626,-940.63,11173
75,-76,2123,-166,14,-35,38.551,35.800,100626,-940.63,500
92,-75,2138,-175,21,-30,38.548,35.800,100626,-940.63,483
75,-84,2130,-165,13,-32,38.589,35.800,100626,-940.63,477
81,-83,2114,-169,16,-35,38.606,35.800,100626,-940.63,473
81,-84,2134,-173,25,-35,38.580,35.800,100626,-940.63,11177
70,-68,2135,-167,17,-31,38.562,35.800,100626,-940.63,515
70,-87,2142,-171,22,-31,38.586,35.800,100626,-940.63,484
75,-78,2126,-167,15,-31,38.574,35.800,100626,-940.63,476
71,-79,2130,-169,20,-34,38.604,35.800,100626,-940.63,473
68,-76,2129,-171,18,-29,38.580,35.800,100626,-940.63,11173
62,-83,2150,-171,21,-32,38.598,35.800,100626,-940.63,513
74,-98,2149,-168,14,-28,38.565,35.800,100626,-940.63,482
79,-91,2126,-172,21,-28,38.589,35.800,100626,-940.63,477
70,-79,2150,-168,14,-32,38.565,35.800,100626,-940.63,473
80,-78,2107,-167,18,-29,38.571,35.800,100620,-940.12,11176
83,-81,2129,-170,19,-30,38.577,35.800,100620,-940.12,517
84,-91,2131,-165,16,-36,38.615,35.800,100620,-940.12,484
74,-85,2120,-167,21,-37,38.574,35.800,100620,-940.12,477
72,-86,2140,-167,16,-34,38.574,35.800,100620,-940.12,473
84,-78,2134,-169,14,-37,38.554,35.800,100617,-939.86,11172
75,-78,2136,-172,19,-33,38.606,35.800,100617,-939.86,513
82,-66,2129,-164,14,-31,38.621,35.800,100617,-939.86,482
67,-60,2155,-171,26,-32,38.601,35.800,100617,-939.86,477
73,-62,2143,-168,13,-36,38.598,35.800,100617,-939.86,473
61,-62,2157,-174,24,-31,38.592,35.800,100611,-939.34,11177
72,-79,2113,-170,16,-29,38.595,35.800,100611,-939.34,517
74,-70,2123,-171,20,-28,38.548,35.800,100611,-939.34,484
79,-81,2154,-165,17,-28,38.589,35.800,100611,-939.34,477
74,-93,2132,-169,17,-29,38.615,35.800,100611,-939.34,473
80,-77,2085,-171,17,-30,38.577,35.800,100611,-939.34,11173
81,-101,2135,-165,14,-27,38.562,35.800,100611,-939.34,500
86,-86,2117,-167,8,-32,38.580,35.800,100611,-939.34,483
84,-93,2104,-172,25,-31,38.592,35.800,100611,-939.34,477
70,-75,2126,-161,5,-31,38.586,35.800,100611,-939.34,473
66,-83,2126,-174,25,-31,38.592,35.800,100617,-939.86,11176
75,-84,2154,-162,3,-31,38.609,35.800,100617,-939.86,504
78,-61,2102,-171,20,-37,38.568,35.800,100617,-939.86,484
71,-66,2145,-168,14,-35,38.583,35.800,100617,-939.86,477
77,-73,2121,-168,18,-34,38.604,35.800,100617,-939.86,473
75,-57,2122,-169,21,-30,38.577,35.800,100626,-940.63,11173
77,-61,2160,-166,11,-30,38.598,35.800,100626,-940.63,497
68,-68,2164,-180,30,-36,38.586,35.800,100626,-940.63,483
73,-75,2134,-165,11,-34,38.595,35.800,100626,-940.63,477
77,-80,2127,-176,25,-25,38.551,35.800,100626,-940.63,473
80,-89,2114,-165,11,-31,38.612,35.800,100617,-939.86,11177
63,-94,2134,-167,12,-29,38.592,35.800,100617,-939.86,515
79,-90,2114,-180,30,-34,38.577,35.800,100617,-939.86,484
90,-93,2131,-164,9,-31,38.583,35.800,100617,-939.86,477
75,-105,2101,-177,26,-32,38.589,35.800,100617,-939.86,473
57,-88,2143,-166,13,-34,38.574,35.800,100620,-940.12,11173
68,-86,2100,-175,19,-37,38.580,35.800,100620,-940.12,502
75,-79,2127,-164,7,-34,38.598,35.800,100620,-940.12,483
84,-83,2113,-175,21,-41,38.612,35.800,100620,-940.12,477
65,-69,2123,-164,13,-36,38.574,35.800,100620,-940.12,473
89,-56,2127,-168,18,-36,38.598,35.800,100620,-940.12,11177
83,-62,2122,-169,23,-31,38.598,35.800,100620,-940.12,502
90,-66,2138,-168,17,-31,38.606,35.800,100620,-940.12,484
89,-68,2150,-175,21,-30,38.615,35.800,100620,-940.12,477
89,-58,2124,-164,14,-32,38.586,35.800,100620,-940.12,473
83,-70,2145,-170,25,-29,38.595,35.800,100623,-940.37,11173
86,-68,2115,-170,23,-28,38.574,35.800,100623,-940.37,500
75,-92,2154,-171,20,-28,38.568,35.800,100623,-940.37,483
70,-83,2126,-169,19,-31,38.606,35.800,100623,-940.37,476
71,-95,2126,-168,21,-26,38.612,35.800,100623,-940.37,473
83,-77,2123,-169,19,-30,38.618,35.800,100623,-940.37,11176
69,-85,2137,-168,22,-25,38.565,35.800,100623,-940.37,501
67,-104,2125,-167,14,-30,38.577,35.800,100623,-940.37,484
60,-83,2132,-173,26,-32,38.577,35.800,100623,-940.37,477
77,-63,2152,-166,15,-31,38.577,35.800,100623,-940.37,473
61,-86,2126,-171,19,-29,38.580,35.800,100623,-940.37,11173
68,-74,2137,-165,11,-31,38.568,35.800,100623,-940.37,499
60,-79,2150,-168,17,-31,38.601,35.800,100623,-940.37,483
70,-68,2130,-168,10,-28,38.565,35.800,100623,-940.37,477
73,-74,2108,-166,22,-33,38.571,35.800,100623,-940.37,473
81,-78,2151,-162,9,-34,38.571,35.800,100623,-940.37,11177
86,-66,2140,-175,24,-31,38.554,35.800,100623,-940.37,518
82,-80,2148,-165,8,-33,38.574,35.800,100623,-940.37,484
77,-75,2084,-169,18,-30,38.568,35.800,100623,-940.37,477
83,-68,2144,-171,18,-33,38.568,35.800,100623,-940.37,473
85,-63,2133,-175,28,-37,38.568,35.800,100614,-939.60,11173
95,-55,2128,-163,8,-33,38.530,35.800,100614,-939.60,514
85,-87,2129,-177,39,-34,38.586,35.800,100614,-939.60,483
76,-71,2122,-160,1,-29,38.545,35.800,100614,-939.60,477
72,-82,2118,-178,36,-33,38.601,35.800,100614,-939.60,473
68,-71,2122,-164,15,-29,38.583,35.800,100629,-940.88,11176
84,-80,2148,-172,23,-30,38.565,35.800,100629,-940.88,518
69,-85,2145,-170,20,-33,38.583,35.800,100629,-940.88,484
79,-97,2136,-170,15,-35,38.571,35.800,100629,-940.88,477
66,-67,2102,-168,12,-29,38.580,35.800,100629,-940.88,473
73,-80,2133,-170,25,-30,38.583,35.800,100623,-940.37,11172
68,-85,2137,-167,12,-31,38.574,35.800,100623,-940.37,496
75,-80,2135,-168,22,-31,38.574,35.800,100623,-940.37,483
71,-102,2127,-166,20,-32,38.601,35.800,100623,-940.37,477
83,-78,2110,-172,20,-33,38.562,35.800,100623,-940.37,473
73,-85,2138,-169,20,-37,38.586,35.800,100626,-940.63,11177
75,-98,2140,-170,24,-33,38.586,35.800,100626,-940.63,504
71,-77,2148,-171,20,-33,38.559,35.800,100626,-940.63,484
78,-84,2112,-165,11,-35,38.577,35.800,100626,-940.63,477
68,-80,2147,-172,18,-33,38.589,35.800,100626,-940.63,473
56,-83,2131,-163,12,-34,38.568,35.800,100626,-940.63,11173
60,-59,2121,-169,19,-37,38.542,35.800,100626,-940.63,499
73,-89,2128,-171,17,-33,38.545,35.800,100626,-940.63,483
72,-61,2127,-170,17,-34,38.556,35.800,100626,-940.63,476
70,-63,2126,-170,19,-31,38.574,35.800,100626,-940.63,473
77,-78,2131,-170,17,-29,38.554,35.800,100617,-939.86,11177
87,-64,2143,-171,16,-32,38.565,35.800,100617,-939.86,502
74,-74,2138,-173,23,-27,38.565,35.800,100617,-939.86,484
80,-77,2133,-167,12,-34,38.612,35.800,100617,-939.86,477
67,-82,2128,-172,20,-31,38.601,35.800,100617,-939.86,473
90,-84,2139,-167,7,-28,38.542,35.800,100623,-940.37,11173
74,-78,2131,-170,25,-28,38.604,35.800,100623,-940.37,497
75,-92,2113,-164,16,-30,38.592,35.800,100623,-940.37,482
70,-97,2116,-169,21,-27,38.565,35.800,100623,-940.37,477
58,-87,2134,-167,17,-31,38.589,35.800,100623,-940.37,473
86,-59,2128,-170,20,-33,38.568,35.800,100626,-940.63,11177
83,-77,2132,-167,18,-32,38.586,35.800,100626,-940.63,517
69,-60,2132,-168,18,-34,38.577,35.800,100626,-940.63,484
72,-88,2141,-168,17,-28,38.583,35.800,100626,-940.63,477
86,-78,2138,-168,17,-33,38.583,35.800,100626,-940.63,473
76,-80,2137,-171,14,-29,38.565,35.800,100620,-940.12,11173
81,-79,2122,-172,20,-29,38.571,35.800,100620,-940.12,515
85,-74,2111,-165,16,-34,38.577,35.800,100620,-940.12,483
77,-85,2142,-169,21,-33,38.589,35.800,100620,-940.12,477
89,-76,2116,-165,17,-28,38.568,35.800,100620,-940.12,473
80,-84,2129,-170,19,-29,38.606,35.800,100629,-940.88,11176
67,-83,2131,-164,19,-29,38.568,35.800,100629,-940.88,502
62,-79,2127,-169,16,-31,38.562,35.800,100629,-940.88,484
75,-80,2143,-170,18,-34,38.586,35.800,100629,-940.88,477
68,-89,2131,-170,21,-33,38.568,35.800,100629,-940.88,473
86,-77,2138,-166,15,-34,38.580,35.800,100626,-940.63,11173
80,-70,2129,-171,21,-31,38.548,35.800,100626,-940.63,496
77,-69,2136,-166,13,-34,38.574,35.800,100626,-940.63,482
80,-67,2147,-172,18,-35,38.598,35.800,100626,-940.63,477
73,-87,2127,-167,16,-33,38.551,35.800,100626,-940.63,473
79,-66,2138,-171,15,-32,38.562,35.800,100620,-940.12,11177
71,-69,2127,-168,20,-33,38.548,35.800,100620,-940.12,500
91,-71,2124,-166,13,-30,38.556,35.800,100620,-940.12,484
78,-65,2131,-174,25,-33,38.556,35.800,100620,-940.12,477
90,-64,2141,-165,11,-33,38.577,35.800,100620,-940.12,473
71,-68,2132,-174,26,-31,38.545,35.800,100620,-940.12,11173
79,-66,2130,-169,14,-29,38.601,35.800,100620,-940.12,514
77,-67,2144,-170,26,-35,38.559,35.800,100620,-940.12,483
73,-61,2108,-169,17,-31,38.542,35.800,100620,-940.12,477
83,-63,2106,-173,23,-28,38.562,35.800,100620,-940.12,473
75,-72,2123,-168,19,-31,38.565,35.800,100620,-940.12,11177
84,-78,2139,-169,23,-28,38.574,35.800,100620,-940.12,518
75,-65,2136,-168,16,-26,38.571,35.800,100620,-940.12,484
71,-70,2124,-171,25,-27,38.562,35.800,100620,-940.12,477
89,-73,2139,-167,12,-28,38.586,35.800,100620,-940.12,473
68,-83,2120,-174,22,-25,38.601,35.800,100626,-940.63,11173
68,-89,2114,-168,14,-27,38.568,35.800,100626,-940.63,513
63,-92,2144,-169,18,-32,38.577,35.800,100626,-940.63,483
75,-95,2140,-167,19,-31,38.554,35.800,100626,-940.63,477
83,-89,2141,-168,20,-36,38.545,35.800,100626,-940.63,473
84,-73,2116,-171,21,-31,38.559,35.800,100629,-940.88,11177
76,-80,2105,-169,20,-28,38.565,35.800,100629,-940.88,516
80,-88,2143,-167,17,-34,38.583,35.800,100629,-940.88,484
71,-80,2122,-170,19,-32,38.559,35.800,100629,-940.88,477
71,-88,2142,-165,16,-36,38.559,35.800,100629,-940.88,473
57,-91,2135,-170,18,-32,38.562,35.800,100626,-940.63,11172
76,-94,2145,-170,11,-31,38.586,35.800,100626,-940.63,515
54,-88,2137,-169,19,-33,38.565,35.800,100626,-940.63,483
73,-79,2122,-170,14,-30,38.589,35.800,100626,-940.63,477
66,-82,2137,-169,21,-32,38.562,35.800,100626,-940.63,473
86,-94,2140,-168,13,-31,38.562,35.800,100620,-940.12,11177
87,-83,2117,-171,18,-32,38.556,35.800,100620,-940.12,501
83,-82,2130,-167,19,-33,38.559,35.800,100620,-940.12,484
89,-74,2118,-172,23,-32,38.571,35.800,100620,-940.12,477
68,-81,2131,-166,17,-32,38.539,35.800,100620,-940.12,473
89,-66,2140,-170,18,-38,38.562,35.800,100623,-940.37,11172
80,-78,2116,-168,15,-32,38.545,35.800,100623,-940.37,498
97,-89,2138,-170,15,-32,38.556,35.800,100623,-940.37,483
71,-79,2132,-168,25,-33,38.583,35.800,100623,-940.37,476
66,-64,2122,-166,15,-32,38.551,35.800,100623,-940.37,473
82,-77,2138,-173,24,-29,38.568,35.800,100617,-939.86,11176
72,-78,2120,-168,16,-32,38.562,35.800,100617,-939.86,503
85,-72,2131,-173,22,-26,38.601,35.800,100617,-939.86,484
70,-69,2130,-166,18,-30,38.568,35.800,100617,-939.86,477
74,-67,2139,-171,27,-29,38.565,35.800,100617,-939.86,473
74,-75,2144,-166,15,-29,38.562,35.800,100629,-940.88,11173
77,-82,2133,-171,21,-27,38.542,35.800,100629,-940.88,512
78,-78,2116,-164,18,-30,38.562,35.800,100629,-940.88,483
76,-79,2127,-171,21,-31,38.556,35.800,100629,-940.88,477
80,-89,2147,-167,16,-36,38.551,35.800,100629,-940.88,473
74,-91,2126,-172,22,-30,38.539,35.800,100623,-940.37,11177
67,-81,2153,-167,12,-30,38.568,35.800,100623,-940.37,518
75,-76,2122,-173,27,-37,38.559,35.800,100623,-940.37,484
60,-86,2131,-164,10,-33,38.574,35.800,100623,-940.37,477
57,-70,2105,-173,23,-35,38.542,35.800,100623,-940.37,473
71,-68,2146,-167,15,-34,38.545,35.800,100620,-940.12,11173
78,-83,2125,-171,24,-34,38.539,35.800,100620,-940.12,513
82,-87,2139,-163,15,-35,38.533,35.800,100620,-940.12,482
92,-76,2131,-170,18,-31,38.562,35.800,100620,-940.12,477
77,-73,2148,-166,17,-35,38.562,35.800,100620,-940.12,473
88,-69,2132,-169,17,-35,38.530,35.800,100620,-940.12,11176
68,-67,2149,-167,15,-28,38.530,35.800,100620,-940.12,503
79,-80,2118,-169,16,-29,38.527,35.800,100620,-940.12,484
81,-67,2118,-168,15,-29,38.512,35.800,100620,-940.12,477
90,-82,2114,-170,22,-31,38.556,35.800,100620,-940.12,473
87,-89,2128,-171,22,-34,38.527,35.800,100626,-940.63,11173
96,-119,2103,-175,22,-33,38.536,35.800,100626,-940.63,499
100,-169,2071,-191,39,-38,38.539,35.800,100626,-940.63,483
107,-243,2082,-192,45,-42,38.539,35.800,100626,-940.63,477
76,-224,2224,-161,13,-46,38.539,35.800,100626,-940.63,473
63,-163,2224,-161,14,-48,38.539,35.800,100620,-940.12,11176
39,-113,2085,-144,-6,-55,38.559,35.800,100620,-940.12,501
66,-38,2088,-152,-7,-54,38.527,35.800,100620,-940.12,484
38,-24,2179,-180,31,-50,38.533,35.800,100620,-940.12,477
44,24,2189,-147,-10,-37,38.556,35.800,100620,-940.12,473
37,62,2107,-178,41,-31,38.536,35.800,100614,-939.60,11173
50,70,2143,-168,1,-22,38.536,35.800,100614,-939.60,505
58,46,2136,-187,47,-21,38.542,35.800,100614,-939.60,483
85,31,2144,-142,-21,-12,38.539,35.800,100614,-939.60,477
96,10,2061,-193,50,-16,38.506,35.800,100614,-939.60,473
91,-35,2149,-161,-7,-11,38.539,35.800,100614,-939.60,11177
114,-123,2159,-193,53,-18,38.515,35.800,100614,-939.60,509
89,-105,2163,-136,-38,-17,38.521,35.800,100614,-939.60,484
124,-61,2082,-187,47,-24,38.521,35.800,100614,-939.60,477
95,-78,2145,-169,22,-24,38.536,35.800,100614,-939.60,473
111,-64,2104,-160,5,-27,38.542,35.800,100623,-940.37,11173
86,-98,2160,-178,36,-29,38.551,35.800,100623,-940.37,514
112,-102,2122,-164,5,-33,38.548,35.800,100623,-940.37,483
69,-86,2106,-175,34,-33,38.515,35.800,100623,-940.37,477
76,-69,2126,-158,0,-32,38.533,35.800,100623,-940.37,473
64,-60,2140,-176,30,-34,38.530,35.800,100629,-940.88,11177
49,-60,2132,-170,17,-30,38.521,35.800,100629,-940.88,517
67,-78,2133,-171,27,-31,38.545,35.800,100629,-940.88,484
53,-76,2162,-167,14,-30,38.533,35.800,100629,-940.88,477
53,-80,2143,-170,19,-32,38.527,35.800,100629,-940.88,473
48,-98,2116,-171,14,-32,38.518,35.700,100626,-940.63,11173
59,-111,2130,-168,14,-27,38.548,35.700,100626,-940.63,500
65,-113,2132,-173,24,-31,38.542,35.700,100626,-940.63,483
54,-111,2138,-168,12,-31,38.530,35.700,100626,-940.63,477
87,-109,2138,-168,10,-34,38.515,35.700,100626,-940.63,473
81,-104,2130,-171,14,-32,38.533,35.800,100626,-940.63,11177
90,-124,2143,-171,18,-36,38.506,35.800,100626,-940.63,501
84,-144,2130,-173,20,-33,38.554,35.800,100626,-940.63,484
86,-101,2138,-166,13,-28,38.530,35.800,100626,-940.63,477
108,-107,2106,-170,14,-34,38.530,35.800,100626,-940.63,473
98,-103,2142,-172,21,-34,38.536,35.800,100629,-940.88,11173
99,-97,2131,-168,14,-41,38.518,35.800,100629,-940.88,514
85,-76,2134,-172,25,-39,38.504,35.800,100629,-940.88,483
79,-64,2138,-167,12,-34,38.524,35.800,100629,-940.88,477
87,-73,2129,-170,22,-34,38.533,35.800,100629,-940.88,473
77,-65,2138,-163,20,-35,38.574,35.800,100623,-940.37,11177
73,-52,2123,-171,22,-31,38.559,35.800,100623,-940.37,516
76,-64,2132,-170,24,-34,38.548,35.800,100623,-940.37,484
66,-43,2156,-167,18,-28,38.539,35.800,100623,-940.37,477
68,-45,2109,-174,23,-30,38.542,35.800,100623,-940.37,473
54,-41,2116,-164,18,-22,38.551,35.800,100629,-940.88,11173
81,-65,2140,-173,20,-28,38.512,35.800,100629,-940.88,505
65,-60,2143,-164,17,-25,38.551,35.800,100629,-940.88,483
78,-67,2137,-170,20,-23,38.551,35.800,100629,-940.88,477
87,-87,2129,-169,18,-27,38.533,35.800,100629,-940.88,473
82,-79,2131,-168,16,-24,38.545,35.800,100626,-940.63,11177
72,-101,2138,-173,26,-30,38.551,35.800,100626,-940.63,517
84,-104,2134,-169,13,-29,38.565,35.800,100626,-940.63,484
63,-104,2134,-172,21,-36,38.556,35.800,100626,-940.63,476
77,-113,2128,-169,12,-34,38.548,35.800,100626,-940.63,473
83,-87,2151,-166,21,-36,38.495,35.700,100626,-940.63,11173
73,-71,2114,-170,21,-42,38.551,35.700,100626,-940.63,514
80,-87,2118,-166,15,-42,38.556,35.700,100626,-940.63,483
89,-63,2142,-168,12,-38,38.562,35.700,100626,-940.63,477
72,-48,2163,-169,19,-40,38.562,35.700,100626,-940.63,473
74,-45,2115,-169,14,-35,38.545,35.700,100626,-940.63,11177
69,-43,2125,-170,19,-32,38.533,35.700,100626,-940.63,502
70,-66,2129,-164,15,-28,38.562,35.700,100626,-940.63,484
69,-70,2135,-171,20,-31,38.536,35.700,100626,-940.63,477
89,-78,2122,-167,16,-29,38.548,35.700,100626,-940.63,473
83,-66,2135,-168,21,-32,38.568,35.800,100629,-940.88,11172
90,-74,2136,-174,22,-25,38.536,35.800,100629,-940.88,500
88,-97,2124,-165,13,-27,38.518,35.800,100629,-940.88,483
76,-98,2124,-172,22,-32,38.556,35.800,100629,-940.88,477
75,-87,2105,-167,16,-29,38.548,35.800,100629,-940.88,473
81,-102,2129,-168,16,-27,38.536,35.700,100626,-940.63,11177
73,-98,2123,-166,19,-30,38.539,35.700,100626,-940.63,501
83,-106,2107,-170,19,-30,38.533,35.700,100626,-940.63,484
64,-114,2156,-166,26,-34,38.515,35.700,100626,-940.63,477
74,-84,2144,-165,17,-37,38.551,35.700,100626,-940.63,473
76,-95,2131,-168,22,-30,38.556,35.700,100623,-940.37,11172
71,-101,2147,-169,19,-36,38.527,35.700,100623,-940.37,496
53,-105,2120,-177,26,-31,38.548,35.700,100623,-940.37,483
82,-97,2108,-161,3,-37,38.539,35.700,100623,-940.37,477
73,-102,2139,-178,34,-35,38.533,35.700,100623,-940.37,473
74,-97,2134,-158,1,-34,38.565,35.700,100635,-941.40,11177
69,-87,2154,-174,28,-34,38.562,35.700,100635,-941.40,518
72,-83,2143,-162,12,-37,38.542,35.700,100635,-941.40,484
79,-64,2143,-168,17,-39,38.545,35.700,100635,-941.40,477
74,-56,2126,-166,12,-33,38.533,35.700,100635,-941.40,473
87,-39,2122,-169,20,-36,38.521,35.700,100614,-939.60,11172
62,-40,2125,-167,19,-29,38.539,35.700,100614,-939.60,511
98,-44,2135,-171,24,-30,38.565,35.700,100614,-939.60,483
85,-33,2130,-172,19,-29,38.527,35.700,100614,-939.60,477
87,-54,2125,-170,16,-26,38.586,35.700,100614,-939.60,473
83,-55,2130,-174,24,-26,38.524,35.700,100620,-940.12,11177
74,-66,2152,-167,15,-30,38.548,35.700,100620,-940.12,502
93,-64,2101,-176,26,-25,38.539,35.700,100620,-940.12,484
80,-89,2138,-167,14,-25,38.539,35.700,100620,-940.12,477
102,-102,2121,-168,17,-30,38.551,35.700,100620,-940.12,473
67,-100,2139,-172,25,-31,38.536,35.700,100620,-940.12,11173
78,-88,2140,-166,21,-33,38.533,35.700,100620,-940.12,499
53,-103,2121,-174,26,-32,38.521,35.700,100620,-940.12,483
76,-90,2130,-165,10,-33,38.521,35.700,100620,-940.12,477
61,-93,2162,-170,19,-34,38.515,35.700,100620,-940.12,473
64,-102,2140,-166,13,-32,38.524,35.700,100623,-940.37,11177
59,-101,2149,-168,14,-32,38.545,35.700,100623,-940.37,502
71,-81,2131,-171,19,-35,38.556,35.700,100623,-940.37,484
65,-92,2135,-170,18,-34,38.542,35.700,100623,-940.37,477
75,-88,2144,-168,14,-32,38.512,35.700,100623,-940.37,473
88,-78,2123,-169,18,-35,38.548,35.700,100632,-941.14,11173
76,-92,2151,-168,15,-34,38.521,35.700,100632,-941.14,500
79,-71,2120,-171,19,-36,38.536,35.700,100632,-941.14,482
82,-89,2129,-167,15,-34,38.562,35.700,100632,-941.14,477
89,-69,2113,-163,5,-32,38.542,35.700,100632,-941.14,473
72,-89,2146,-172,26,-36,38.527,35.700,100629,-940.88,11177
98,-71,2149,-165,4,-30,38.545,35.700,100629,-940.88,516
77,-60,2116,-177,29,-30,38.556,35.700,100629,-940.88,484
87,-64,2129,-160,1,-29,38.568,35.700,100629,-940.88,476
81,-67,2129,-176,37,-28,38.542,35.700,100629,-940.88,473
84,-80,2145,-158,9,-28,38.554,35.700,100629,-940.88,11173
88,-76,2120,-180,35,-31,38.539,35.700,100629,-940.88,513
80,-73,2149,-161,5,-29,38.524,35.700,100629,-940.88,483
67,-79,2118,-172,29,-29,38.524,35.700,100629,-940.88,477
65,-88,2148,-171,20,-26,38.545,35.700,100629,-940.88,473
78,-80,2097,-166,10,-28,38.542,35.700,100632,-941.14,11177
61,-77,2141,-169,16,-31,38.524,35.700,100632,-941.14,502
84,-60,2120,-166,13,-30,38.509,35.700,100632,-941.14,484
57,-85,2116,-173,29,-31,38.533,35.700,100632,-941.14,477
81,-79,2134,-163,10,-30,38.542,35.700,100632,-941.14,473
73,-101,2137,-181,39,-32,38.530,35.700,100626,-940.63,11173
71,-92,2157,-159,0,-32,38.527,35.700,100626,-940.63,503
74,-80,2111,-180,36,-33,38.506,35.700,100626,-940.63,483
69,-87,2163,-157,1,-39,38.518,35.700,100626,-940.63,477
95,-85,2115,-171,16,-32,38.539,35.700,100626,-940.63,473
55,-88,2136,-166,14,-34,38.518,35.700,100629,-940.88,11177
88,-74,2113,-171,19,-34,38.518,35.700,100629,-940.88,514
78,-72,2120,-176,27,-33,38.498,35.700,100629,-940.88,484
73,-74,2119,-165,10,-32,38.515,35.700,100629,-940.88,477
75,-75,2120,-171,20,-36,38.527,35.700,100629,-940.88,473
90,-75,2133,-163,13,-32,38.533,35.700,100635,-941.40,11173
71,-77,2120,-168,17,-33,38.533,35.700,100635,-941.40,499
73,-62,2116,-168,21,-32,38.518,35.700,100635,-941.40,483
71,-75,2112,-169,23,-28,38.542,35.700,100635,-941.40,477
97,-67,2095,-170,18,-29,38.527,35.700,100635,-941.40,473
72,-76,2137,-168,22,-28,38.518,35.700,100623,-940.37,11177
66,-74,2129,-167,20,-29,38.518,35.700,100623,-940.37,501
93,-71,2162,-163,19,-32,38.556,35.700,100623,-940.37,484
94,-64,2102,-170,20,-25,38.536,35.700,100623,-940.37,477
54,-96,2171,-157,4,-27,38.501,35.700,100623,-940.37,473
92,-88,2113,-171,14,-29,38.521,35.700,100632,-941.14,11173
32,-96,2180,-165,16,-29,38.568,35.700,100632,-941.14,499
96,-81,2132,-160,1,-28,38.545,35.700,100632,-941.14,483
74,-105,2145,-187,43,-30,38.539,35.700,100632,-941.14,477
72,-91,2126,-148,-20,-33,38.506,35.700,100632,-941.14,473
61,-111,2139,-186,49,-32,38.556,35.700,100617,-939.86,11177
64,-91,2132,-153,-4,-33,38.518,35.700,100617,-939.86,504
79,-82,2082,-187,46,-33,38.542,35.700,100617,-939.86,484
70,-98,2145,-160,2,-37,38.542,35.700,100617,-939.86,477
77,-84,2128,-169,21,-35,38.509,35.700,100617,-939.86,473
83,-85,2128,-168,16,-32,38.515,35.700,100617,-939.86,11173
94,-64,2136,-165,14,-35,38.521,35.700,100617,-939.86,502
66,-78,2133,-175,23,-34,38.524,35.700,100617,-939.86,483
79,-67,2123,-165,11,-33,38.545,35.700,100617,-939.86,477
77,-66,2146,-170,23,-31,38.521,35.700,100617,-939.86,473
86,-73,2136,-167,12,-31,38.527,35.700,100623,-940.37,11177
69,-69,2115,-172,21,-28,38.506,35.700,100623,-940.37,501
80,-72,2154,-166,13,-30,38.580,35.700,100623,-940.37,484
82,-67,2146,-173,29,-34,38.556,35.700,100623,-940.37,477
78,-81,2121,-165,16,-31,38.559,35.700,100623,-940.37,473
69,-68,2111,-170,19,-27,38.536,35.700,100620,-940.12,11172
79,-50,2143,-170,18,-32,38.506,35.700,100620,-940.12,497
67,-77,2149,-169,21,-31,38.498,35.700,100620,-940.12,483
75,-72,2105,-175,20,-31,38.521,35.700,100620,-940.12,477
65,-79,2147,-168,15,-34,38.521,35.700,100620,-940.12,473
68,-84,2116,-170,15,-31,38.536,35.700,100614,-939.60,11176
53,-98,2111,-170,23,-32,38.527,35.700,100614,-939.60,500
75,-92,2130,-164,12,-31,38.536,35.700,100614,-939.60,484
76,-96,2129,-170,16,-32,38.574,35.700,100614,-939.60,477
84,-91,2144,-170,16,-31,38.504,35.700,100614,-939.60,473
82,-88,2114,-166,16,-37,38.515,35.700,100629,-940.88,11173
69,-83,2139,-168,18,-30,38.536,35.700,100629,-940.88,495
87,-78,2130,-168,16,-34,38.559,35.700,100629,-940.88,483
88,-67,2107,-170,22,-33,38.515,35.700,100629,-940.88,477
89,-67,2119,-166,13,-29,38.501,35.700,100629,-940.88,473
74,-67,2130,-168,18,-31,38.559,35.700,100626,-940.63,11176
73,-68,2127,-169,19,-29,38.515,35.700,100626,-940.63,516
88,-73,2124,-168,23,-31,38.533,35.700,100626,-940.63,484
82,-76,2135,-173,22,-28,38.559,35.700,100626,-940.63,477
80,-81,2138,-171,18,-33,38.501,35.700,100626,-940.63,473
58,-85,2155,-170,18,-30,38.521,35.700,100629,-940.88,11173
76,-84,2138,-169,25,-30,38.539,35.700,100629,-940.88,511
69,-86,2132,-169,16,-29,38.548,35.700,100629,-940.88,483
79,-91,2142,-169,18,-32,38.515,35.700,100629,-940.88,477
73,-96,2119,-167,16,-27,38.501,35.700,100629,-940.88,473
85,-87,2127,-170,20,-32,38.521,35.700,100626,-940.63,11177
64,-98,2125,-168,18,-33,38.504,35.700,100626,-940.63,517
79,-80,2124,-167,14,-34,38.492,35.700,100626,-940.63,484
69,-71,2135,-165,16,-34,38.524,35.700,100626,-940.63,477
75,-70,2113,-164,17,-38,38.486,35.700,100626,-940.63,473
63,-71,2137,-167,19,-34,38.509,35.700,100623,-940.37,11172
75,-68,2110,-171,23,-33,38.539,35.700,100623,-940.37,514
77,-53,2124,-166,13,-32,38.506,35.700,100623,-940.37,482
95,-58,2117,-171,20,-32,38.518,35.700,100623,-940.37,477
71,-71,2150,-175,20,-33,38.515,35.700,100623,-940.37,473
84,-57,2126,-169,17,-36,38.501,35.700,100617,-939.86,11177
68,-54,2153,-169,15,-32,38.512,35.700,100617,-939.86,517
66,-71,2112,-169,16,-30,38.556,35.700,100617,-939.86,484
63,-83,2138,-172,24,-31,38.559,35.700,100617,-939.86,477
82,-85,2122,-166,8,-34,38.495,35.700,100617,-939.86,473
50,-101,2124,-178,43,-29,38.498,35.700,100626,-940.63,11173
72,-95,2126,-161,2,-34,38.539,35.700,100626,-940.63,516
73,-108,2147,-198,65,-32,38.492,35.700,100626,-940.63,483
74,-83,2148,-141,-31,-32,38.530,35.700,100626,-940.63,477
80,-89,2109,-190,48,-39,38.495,35.700,100626,-940.63,473
73,-104,2149,-144,-18,-33,38.518,35.700,100629,-940.88,11176
91,-79,2128,-186,48,-38,38.501,35.700,100629,-940.88,515
82,-76,2120,-155,2,-32,38.498,35.700,100629,-940.88,484
111,-48,2112,-167,17,-30,38.506,35.700,100629,-940.88,477
56,-88,2171,-171,19,-34,38.521,35.700,100629,-940.88,473
93,-65,2118,-160,4,-30,38.506,35.700,100626,-940.63,11172
72,-81,2143,-175,24,-27,38.501,35.700,100626,-940.63,512
76,-78,2110,-166,16,-29,38.512,35.700,100626,-940.63,483
67,-73,2160,-169,26,-31,38.506,35.700,100626,-940.63,477
63,-83,2119,-162,10,-29,38.506,35.700,100626,-940.63,473
80,-100,2107,-177,26,-28,38.527,35.700,100620,-940.12,11177
75,-94,2134,-163,9,-31,38.504,35.700,100620,-940.12,516
78,-86,2129,-172,22,-32,38.504,35.700,100620,-940.12,484
72,-89,2141,-165,13,-34,38.524,35.700,100620,-940.12,477
72,-87,2138,-168,16,-36,38.515,35.700,100620,-940.12,473
64,-86,2137,-172,18,-36,38.501,35.700,100626,-940.63,11173
81,-65,2124,-164,11,-28,38.512,35.700,100626,-940.63,515
76,-80,2124,-173,21,-37,38.512,35.700,100626,-940.63,483
83,-66,2123,-165,15,-34,38.509,35.700,100626,-940.63,477
82,-64,2141,-166,17,-33,38.524,35.700,100626,-940.63,473
78,-51,2144,-167,15,-33,38.509,35.700,100626,-940.63,11176
80,-63,2129,-166,12,-37,38.530,35.700,100626,-940.63,517
76,-62,2104,-171,25,-35,38.518,35.700,100626,-940.63,484
76,-66,2121,-168,20,-33,38.483,35.700,100626,-940.63,477
77,-63,2142,-167,17,-33,38.515,35.700,100626,-940.63,473
77,-78,2121,-169,22,-32,38.512,35.700,100632,-941.14,11173
74,-92,2114,-171,16,-36,38.501,35.700,100632,-941.14,516
79,-90,2115,-170,18,-26,38.483,35.700,100632,-941.14,483
76,-91,2114,-168,17,-26,38.518,35.700,100632,-941.14,477
83,-94,2140,-167,14,-34,38.530,35.700,100632,-941.14,473
85,-89,2129,-170,24,-32,38.533,35.700,100623,-940.37,11176
82,-93,2115,-165,16,-33,38.509,35.700,100623,-940.37,517
80,-102,2128,-174,22,-31,38.492,35.700,100623,-940.37,484
84,-91,2124,-168,20,-33,38.492,35.700,100623,-940.37,477
77,-77,2130,-171,21,-31,38.480,35.700,100623,-940.37,473
71,-82,2138,-166,15,-37,38.530,35.700,100620,-940.12,11173
77,-96,2131,-169,21,-32,38.533,35.700,100620,-940.12,513
75,-81,2119,-167,16,-34,38.486,35.700,100620,-940.12,482
77,-82,2128,-172,19,-34,38.521,35.700,100620,-940.12,477
71,-73,2135,-169,8,-32,38.524,35.700,100620,-940.12,473
68,-82,2119,-173,22,-35,38.512,35.700,100632,-941.14,11177
81,-73,2154,-169,17,-33,38.486,35.700,100632,-941.14,517
66,-57,2141,-167,17,-31,38.498,35.700,100632,-941.14,484
81,-59,2126,-171,19,-35,38.489,35.700,100632,-941.14,477
80,-61,2115,-170,14,-35,38.495,35.700,100632,-941.14,473
81,-69,2131,-176,22,-30,38.489,35.700,100623,-940.37,11173
87,-58,2127,-165,5,-27,38.483,35.700,100623,-940.37,499
76,-64,2119,-178,36,-30,38.486,35.700,100623,-940.37,483
92,-61,2171,-157,3,-29,38.498,35.700,100623,-940.37,477
75,-78,2124,-192,55,-32,38.439,35.700,100623,-940.37,473
74,-83,2136,-148,-10,-26,38.477,35.700,100614,-939.60,11177
101,-88,2113,-180,41,-27,38.504,35.700,100614,-939.60,502
56,-90,2141,-158,-1,-28,38.471,35.700,100614,-939.60,484
94,-75,2113,-179,34,-33,38.471,35.700,100614,-939.60,477
51,-100,2122,-165,16,-29,38.454,35.700,100614,-939.60,473
78,-94,2108,-169,17,-32,38.471,35.700,100626,-940.63,11173
56,-111,2156,-164,13,-31,38.486,35.700,100626,-940.63,500
75,-107,2096,-162,15,-32,38.477,35.700,100626,-940.63,483
55,-135,2101,-174,26,-32,38.492,35.700,100626,-940.63,477
75,-107,2105,-158,5,-32,38.474,35.700,100626,-940.63,473
72,-99,2108,-176,25,-43,38.492,35.700,100626,-940.63,11177
79,-86,2121,-164,7,-41,38.498,35.700,100626,-940.63,517
77,-98,2151,-170,23,-38,38.465,35.700,100626,-940.63,484
72,-82,2132,-161,6,-38,38.433,35.700,100626,-940.63,477
77,-79,2098,-174,22,-37,38.474,35.700,100626,-940.63,473
92,-54,2137,-161,11,-38,38.504,35.700,100629,-940.88,11173
81,-51,2139,-167,20,-38,38.468,35.700,100629,-940.88,514
72,-39,2138,-167,15,-38,38.471,35.700,100629,-940.88,483
88,-34,2112,-165,18,-38,38.471,35.700,100629,-940.88,477
84,-41,2156,-165,17,-33,38.489,35.700,100629,-940.88,473
90,-32,2118,-165,18,-36,38.462,35.700,100623,-940.37,11177
96,-55,2135,-164,10,-34,38.483,35.700,100623,-940.37,517
77,-53,2118,-178,32,-30,38.451,35.700,100623,-940.37,484
80,-68,2121,-165,12,-29,38.492,35.700,100623,-940.37,477
80,-52,2099,-178,32,-31,38.471,35.700,100623,-940.37,473
72,-67,2138,-162,11,-32,38.456,35.700,100626,-940.63,11173
83,-92,2120,-176,31,-27,38.474,35.700,100626,-940.63,514
55,-88,2145,-169,18,-28,38.480,35.700,100626,-940.63,483
76,-90,2122,-171,23,-33,38.454,35.700,100626,-940.63,476
54,-107,2148,-173,23,-31,38.454,35.700,100626,-940.63,473
74,-113,2112,-167,12,-32,38.459,35.700,100629,-940.88,11177
63,-105,2139,-170,20,-33,38.462,35.700,100629,-940.88,517
66,-86,2129,-165,13,-35,38.489,35.700,100629,-940.88,484
78,-95,2143,-169,20,-34,38.445,35.700,100629,-940.88,477
82,-86,2141,-163,15,-36,38.477,35.700,100629,-940.88,473
70,-83,2131,-170,18,-35,38.459,35.700,100623,-940.37,11173
90,-90,2161,-166,9,-37,38.483,35.700,100623,-940.37,515
82,-74,2135,-163,13,-36,38.459,35.700,100623,-940.37,483
75,-54,2148,-169,18,-31,38.456,35.700,100623,-940.37,477
95,-85,2136,-166,14,-34,38.474,35.700,100623,-940.37,473
87,-69,2107,-168,19,-35,38.465,35.700,100629,-940.88,11177
82,-63,2114,-166,15,-31,38.427,35.700,100629,-940.88,502
69,-66,2135,-169,20,-32,38.486,35.700,100629,-940.88,484
93,-69,2132,-164,13,-33,38.448,35.700,100629,-940.88,477
78,-75,2142,-170,18,-33,38.454,35.700,100629,-940.88,473
78,-79,2138,-165,18,-34,38.448,35.700,100635,-941.40,11173
87,-76,2129,-167,23,-30,38.471,35.700,100635,-941.40,499
77,-75,2116,-169,21,-34,38.471,35.700,100635,-941.40,483
85,-85,2152,-168,22,-32,38.459,35.700,100635,-941.40,477
75,-60,2127,-170,20,-29,38.489,35.700,100635,-941.40,473
69,-89,2124,-169,16,-29,38.456,35.700,100629,-940.88,11177
72,-74,2106,-169,24,-30,38.456,35.700,100629,-940.88,517
55,-67,2132,-167,20,-31,38.451,35.700,100629,-940.88,484
71,-79,2115,-168,14,-31,38.459,35.700,100629,-940.88,477
65,-69,2137,-166,17,-31,38.456,35.700,100629,-940.88,473
72,-71,2121,-167,13,-30,38.421,35.700,100617,-939.86,11173
69,-85,2130,-169,25,-32,38.486,35.700,100617,-939.86,516
58,-86,2122,-165,15,-35,38.468,35.700,100617,-939.86,483
80,-72,2127,-169,18,-31,38.451,35.700,100617,-939.86,477
77,-78,2115,-169,19,-28,38.436,35.700,100617,-939.86,473
87,-81,2124,-167,17,-32,38.445,35.700,100623,-940.37,11177
75,-76,2138,-170,21,-31,38.468,35.700,100623,-940.37,517
71,-68,2130,-171,18,-33,38.501,35.700,100623,-940.37,484
76,-80,2124,-165,15,-32,38.468,35.700,100623,-940.37,477
88,-65,2123,-172,22,-34,38.480,35.700,100623,-940.37,473
