timeInstance, accX, accY, accZ, gyroX, gyroY, gyroZ, temp
2443640, 0.020752, -0.016602, 0.918213, 2.134146, -1.036585, -0.182927, 33.047646
2445274, 0.023438, -0.020752, 0.919189, 2.256098, -1.097561, -0.243902, 33.188824
2446907, 0.014893, -0.015869, 0.918701, 2.012195, -1.219512, -0.121951, 33.141762
2448541, 0.021973, -0.015381, 0.915771, 2.195122, -1.097561, -0.121951, 33.188824
2450174, 0.014648, -0.019531, 0.918213, 2.317073, -1.158537, -0.243902, 33.141762
2451808, 0.014160, -0.014648, 0.915771, 2.134146, -1.158537, -0.182927, 33.094704
2453441, 0.023682, -0.017822, 0.922119, 2.378049, -1.219512, -0.304878, 33.141762
2455074, 0.017822, -0.016357, 0.912354, 2.195122, -1.158537, -0.304878, 33.094704
2456708, 0.015625, -0.015381, 0.917725, 2.134146, -1.158537, -0.060976, 33.141762
2458341, 0.022705, -0.017822, 0.913086, 2.134146, -1.097561, -0.243902, 33.188824
2459975, 0.024170, -0.014648, 0.921875, 2.134146, -1.219512, -0.365854, 33.141762
2461615, 0.014160, -0.014404, 0.918701, 2.134146, -1.158537, -0.365854, 33.141762
2463248, 0.021240, -0.016602, 0.912842, 2.378049, -0.975610, -0.365854, 33.188824
2464882, 0.021240, -0.016846, 0.916992, 2.317073, -1.219512, -0.304878, 33.141762
2466515, 0.021240, -0.017578, 0.911377, 2.317073, -0.975610, -0.182927, 33.094704
2468149, 0.009277, -0.015625, 0.916504, 2.073171, -1.036585, -0.060976, 33.235882
2469782, 0.021973, -0.014404, 0.912354, 2.195122, -1.097561, -0.243902, 33.094704
2471416, 0.013672, -0.015625, 0.914307, 2.317073, -1.158537, -0.365854, 33.094704
2473049, 0.023438, -0.017578, 0.917480, 2.134146, -1.097561, -0.121951, 33.188824
2474682, 0.022461, -0.018555, 0.909668, 1.951220, -0.975610, -0.365854, 33.047646
2476316, 0.014160, -0.013916, 0.911621, 2.256098, -1.158537, -0.182927, 33.094704
2477949, 0.020020, -0.013672, 0.910156, 2.317073, -1.158537, -0.182927, 33.047646
2479583, 0.017334, -0.017334, 0.907959, 2.195122, -1.036585, -0.365854, 33.094704
2481216, 0.017822, -0.009521, 0.906738, 2.134146, -0.914634, -0.121951, 33.047646
2482849, 0.019775, -0.014648, 0.928955, 2.317073, -1.158537, -0.182927, 33.094704
2484483, 0.018799, -0.013672, 0.912842, 2.195122, -1.280488, -0.243902, 33.141762
2486117, 0.018555, -0.020996, 0.916748, 2.073171, -0.975610, -0.304878, 33.188824
2487751, 0.015625, -0.013428, 0.921875, 2.256098, -1.036585, -0.426829, 33.141762
2489384, 0.018066, -0.014648, 0.919922, 2.256098, -1.219512, -0.060976, 33.188824
2491007, 0.019287, -0.016846, 0.908203, 2.195122, -1.097561, -0.060976, 33.094704
2492641, 0.017822, -0.009277, 0.908936, 2.256098, -1.097561, -0.121951, 33.141762
2494274, 0.022461, -0.013184, 0.910645, 2.073171, -1.097561, -0.182927, 33.094704
2495908, 0.020996, -0.019043, 0.912354, 2.073171, -0.853659, -0.487805, 33.141762
2497541, 0.018066, -0.016357, 0.907715, 2.256098, -1.036585, -0.365854, 33.094704
2499174, 0.021484, -0.019531, 0.907471, 2.134146, -1.097561, -0.304878, 33.141762
2500808, 0.019775, -0.015381, 0.915771, 2.073171, -1.219512, -0.060976, 33.094704
2502441, 0.026123, -0.012695, 0.922607, 2.195122, -1.280488, -0.121951, 33.094704
2504075, 0.021973, -0.019531, 0.916504, 2.256098, -1.097561, -0.182927, 33.094704
2505708, 0.021729, -0.017090, 0.916260, 2.134146, -0.975610, -0.243902, 33.047646
2507341, 0.017334, -0.020508, 0.908936, 2.134146, -1.036585, -0.182927, 33.188824
2508975, 0.017334, -0.009766, 0.919678, 2.256098, -1.036585, -0.304878, 33.047646
2510615, 0.023193, -0.013916, 0.916260, 2.012195, -1.280488, -0.426829, 33.000587
2512248, 0.016113, -0.015625, 0.914795, 2.073171, -1.097561, -0.304878, 33.047646
2513882, 0.014893, -0.019531, 0.910400, 2.256098, -0.975610, -0.243902, 33.094704
2515516, 0.020996, -0.014893, 0.915283, 2.073171, -1.097561, -0.243902, 33.047646
2517149, 0.014893, -0.017822, 0.911133, 2.073171, -1.036585, -0.060976, 33.094704
2518782, 0.023438, -0.018311, 0.915771, 2.256098, -1.280488, -0.182927, 33.141762
2520416, 0.019531, -0.021484, 0.921875, 2.317073, -1.158537, 0.000000, 33.094704
2522049, 0.021484, -0.015869, 0.914307, 2.134146, -0.975610, -0.121951, 33.188824
2523683, 0.020264, -0.012695, 0.908936, 2.195122, -1.158537, -0.121951, 33.047646
2525316, 0.016113, -0.016602, 0.919189, 2.195122, -1.036585, -0.060976, 33.188824
2526949, 0.023193, -0.013428, 0.922119, 2.134146, -1.097561, -0.060976, 33.235882
2528583, 0.018311, -0.020020, 0.913818, 2.378049, -1.158537, -0.121951, 33.094704
2530216, 0.022949, -0.019531, 0.915771, 2.195122, -0.975610, -0.182927, 33.141762
2531850, 0.026611, -0.020996, 0.922363, 2.256098, -1.036585, -0.365854, 33.188824
2533483, 0.018799, -0.018066, 0.922852, 2.073171, -0.914634, -0.182927, 33.047646
2535117, 0.022217, -0.026123, 0.917969, 2.134146, -1.219512, -0.121951, 33.188824
2536751, 0.020508, -0.011963, 0.916016, 2.134146, -1.280488, -0.304878, 33.047646
2538384, 0.023682, -0.012939, 0.910156, 2.073171, -1.036585, -0.304878, 33.094704
2540007, 0.020020, -0.010742, 0.912354, 2.195122, -0.975610, -0.060976, 33.047646
2541641, 0.020752, -0.015625, 0.915771, 2.134146, -0.914634, -0.121951, 33.188824
2543274, 0.020752, -0.018066, 0.909424, 2.195122, -1.158537, -0.121951, 33.141762
2544908, 0.018799, -0.015869, 0.913330, 2.317073, -1.036585, -0.121951, 33.188824
2546541, 0.022217, -0.013672, 0.918701, 2.195122, -1.219512, -0.121951, 33.141762
2548174, 0.022705, -0.012207, 0.915771, 2.256098, -0.853659, -0.243902, 33.094704
2549808, 0.024170, -0.019043, 0.914551, 2.195122, -1.158537, -0.060976, 33.047646
2551441, 0.025391, -0.015625, 0.905762, 2.073171, -1.097561, -0.243902, 33.094704
2553075, 0.019775, -0.015137, 0.921631, 2.134146, -1.158537, -0.121951, 33.094704
2554708, 0.022217, -0.016113, 0.913818, 2.134146, -1.280488, -0.182927, 33.047646
2556341, 0.024658, -0.021729, 0.916260, 2.134146, -1.219512, -0.243902, 33.094704
2557975, 0.020264, -0.013916, 0.905273, 2.134146, -1.158537, -0.243902, 33.047646
2559615, 0.015869, -0.017334, 0.918945, 2.012195, -1.158537, -0.365854, 33.094704
2561248, 0.016846, -0.018066, 0.908203, 2.195122, -1.280488, -0.304878, 33.141762
2562882, 0.017578, -0.016602, 0.918945, 2.195122, -0.975610, -0.121951, 33.094704
2564516, 0.023682, -0.018066, 0.913086, 1.951220, -0.975610, -0.121951, 33.141762
2566149, 0.021973, -0.016846, 0.921875, 2.134146, -1.158537, -0.243902, 33.094704
2567782, 0.020996, -0.012451, 0.917480, 2.317073, -1.158537, -0.243902, 33.047646
2569416, 0.011230, -0.014893, 0.914551, 2.317073, -1.097561, -0.304878, 33.094704
2571049, 0.021484, -0.019043, 0.920166, 2.012195, -0.975610, -0.304878, 33.235882
2572683, 0.023682, -0.013428, 0.917480, 2.195122, -1.097561, -0.365854, 33.094704
2574316, 0.023438, -0.017578, 0.921631, 2.134146, -0.975610, -0.182927, 33.141762
2575949, 0.019775, -0.014404, 0.920654, 2.195122, -1.158537, -0.304878, 33.094704
2577583, 0.020508, -0.010986, 0.916748, 2.073171, -1.219512, -0.182927, 33.141762
2579216, 0.017334, -0.010254, 0.903809, 2.256098, -0.975610, -0.060976, 33.047646
2580850, 0.019287, -0.015381, 0.920654, 2.134146, -0.914634, -0.243902, 33.094704
2582483, 0.023193, -0.016357, 0.908203, 2.439024, -1.036585, -0.243902, 33.094704
2584117, 0.021484, -0.016602, 0.920166, 2.195122, -1.158537, -0.121951, 33.094704
2585751, 0.019287, -0.016846, 0.902100, 1.951220, -1.158537, -0.243902, 33.141762
2587384, 0.022461, -0.014160, 0.907471, 2.134146, -1.341463, -0.304878, 33.094704
2589007, 0.022949, -0.013428, 0.922363, 2.256098, -1.036585, 0.000000, 33.047646
2590641, 0.020752, -0.020020, 0.910400, 2.195122, -1.036585, -0.182927, 33.094704
2592274, 0.023438, -0.016602, 0.910889, 2.134146, -0.914634, 0.000000, 33.141762
2593908, 0.017334, -0.011719, 0.908691, 2.256098, -1.036585, -0.304878, 33.188824
2595541, 0.021240, -0.015381, 0.910645, 2.134146, -1.097561, -0.304878, 33.141762
2597174, 0.017578, -0.018555, 0.918945, 2.073171, -1.036585, -0.182927, 33.094704
2598808, 0.021240, -0.019287, 0.910889, 2.134146, -1.036585, -0.304878, 33.141762
2600441, 0.017578, -0.021729, 0.918701, 2.317073, -1.036585, -0.243902, 33.094704
2602075, 0.017090, -0.009766, 0.919678, 2.256098, -1.219512, -0.182927, 33.047646
2603708, 0.020996, -0.016846, 0.906494, 2.073171, -1.097561, -0.182927, 33.094704
2605341, 0.023926, -0.020264, 0.915771, 2.256098, -1.158537, -0.365854, 33.141762
2606975, 0.014648, -0.020508, 0.909668, 2.256098, -0.975610, -0.365854, 33.094704
2608615, 0.021484, -0.025391, 0.916260, 2.134146, -0.975610, -0.182927, 33.094704
2610248, 0.014893, -0.021729, 0.916748, 2.134146, -1.219512, -0.182927, 33.141762
2611882, 0.012939, -0.010742, 0.910400, 2.195122, -1.158537, -0.243902, 33.188824
2613516, 0.024170, -0.012695, 0.913818, 2.195122, -1.036585, -0.243902, 33.094704
2615149, 0.016357, -0.018799, 0.912598, 2.317073, -1.097561, -0.365854, 33.094704
2616782, 0.013672, -0.013672, 0.913086, 2.195122, -1.158537, -0.182927, 33.047646
2618416, 0.013428, -0.013916, 0.911865, 2.073171, -1.219512, -0.121951, 33.094704
2620049, 0.021484, -0.012695, 0.915283, 2.134146, -1.097561, -0.304878, 33.141762
2621683, 0.016846, -0.017090, 0.922363, 2.317073, -1.280488, -0.365854, 33.094704
2623316, 0.018066, -0.014893, 0.911865, 2.134146, -1.097561, -0.243902, 33.141762
2624949, 0.020508, -0.019287, 0.918457, 2.073171, -0.914634, -0.365854, 33.094704
2626583, 0.026611, -0.015137, 0.917725, 2.256098, -1.036585, -0.060976, 33.141762
2628216, 0.020264, -0.014404, 0.914795, 2.195122, -0.914634, -0.304878, 33.094704
2629850, 0.018311, -0.019287, 0.913086, 1.951220, -1.158537, -0.304878, 33.047646
2631483, 0.015137, -0.019531, 0.917725, 2.195122, -1.036585, -0.060976, 33.094704
2633117, 0.021484, -0.020996, 0.915039, 2.195122, -1.158537, -0.365854, 33.047646
2634751, 0.018066, -0.017334, 0.907959, 2.195122, -1.280488, -0.365854, 33.094704
2636384, 0.014648, -0.017090, 0.916016, 2.195122, -1.036585, -0.121951, 33.141762
2638007, 0.017334, -0.016846, 0.911133, 2.378049, -0.975610, -0.121951, 33.141762
2639641, 0.019043, -0.014160, 0.918213, 2.256098, -0.975610, -0.365854, 33.094704
2641274, 0.012695, -0.015137, 0.911377, 2.195122, -1.280488, -0.304878, 33.047646
2642908, 0.021973, -0.015625, 0.910156, 2.134146, -1.219512, -0.304878, 33.188824
2644541, 0.022461, -0.017578, 0.912354, 2.134146, -1.036585, -0.243902, 33.094704
2646174, 0.022461, -0.011475, 0.921387, 2.073171, -1.036585, -0.243902, 33.094704
2647808, 0.019043, -0.012207, 0.919678, 2.317073, -0.853659, -0.182927, 33.047646
2649441, 0.021484, -0.018311, 0.912598, 2.073171, -1.219512, -0.182927, 33.094704
2651075, 0.018311, -0.010742, 0.909912, 2.134146, -1.097561, -0.365854, 33.141762
2652708, 0.018066, -0.015137, 0.910645, 2.073171, -1.280488, -0.243902, 33.188824
2654341, 0.018311, -0.015869, 0.916260, 2.073171, -0.792683, -0.060976, 33.047646
2655975, 0.023438, -0.017822, 0.909912, 2.195122, -0.975610, -0.121951, 33.188824
2657615, 0.012451, -0.015381, 0.912842, 2.317073, -1.158537, -0.060976, 33.235882
2659248, 0.016357, -0.017822, 0.916748, 2.256098, -1.219512, -0.243902, 33.094704
2660882, 0.021240, -0.018799, 0.910156, 2.134146, -0.914634, -0.243902, 33.141762
2662516, 0.019775, -0.020752, 0.912354, 2.134146, -1.158537, -0.182927, 33.094704
2664149, 0.018555, -0.014648, 0.916748, 2.134146, -1.036585, -0.426829, 33.141762
2665782, 0.018066, -0.020752, 0.914551, 2.256098, -1.036585, -0.243902, 33.188824
2667416, 0.020508, -0.016846, 0.910400, 1.951220, -1.036585, -0.121951, 33.094704
2669049, 0.019531, -0.011230, 0.919434, 1.829268, -1.280488, -0.121951, 33.047646
2670683, 0.017334, -0.013672, 0.912598, 2.073171, -1.219512, -0.243902, 33.094704
2672316, 0.019775, -0.011719, 0.913574, 2.317073, -1.097561, -0.243902, 33.141762
2673949, 0.020264, -0.011963, 0.918945, 2.073171, -1.158537, -0.304878, 33.094704
2675583, 0.021973, -0.013672, 0.917236, 1.951220, -1.158537, -0.365854, 33.094704
2677216, 0.020264, -0.021240, 0.920654, 2.134146, -0.914634, -0.304878, 33.094704
2678850, 0.018066, -0.009766, 0.907227, 2.256098, -1.036585, -0.243902, 33.141762
2680483, 0.016846, -0.013916, 0.916504, 2.256098, -1.036585, -0.182927, 33.188824
2682117, 0.023926, -0.015625, 0.911865, 2.256098, -1.219512, -0.182927, 33.047646
2683751, 0.018066, -0.013672, 0.908936, 2.073171, -1.097561, 0.060976, 33.094704
2685384, 0.019775, -0.013428, 0.913574, 2.073171, -0.975610, -0.182927, 33.141762
2687007, 0.025879, -0.016357, 0.916016, 2.378049, -1.097561, 0.000000, 33.094704
2688641, 0.022461, -0.011963, 0.908691, 2.195122, -1.219512, -0.121951, 33.047646
2690274, 0.018799, -0.015137, 0.916504, 2.195122, -1.097561, -0.365854, 33.094704
2691908, 0.018311, -0.010986, 0.923828, 2.195122, -0.975610, -0.304878, 33.047646
2693541, 0.023926, -0.018555, 0.918213, 2.134146, -0.914634, -0.121951, 33.094704
2695174, 0.020264, -0.016846, 0.910400, 2.073171, -1.036585, -0.304878, 33.141762
2696808, 0.019531, -0.016113, 0.916504, 2.195122, -1.097561, -0.121951, 33.094704
2698441, 0.017578, -0.020508, 0.911865, 2.378049, -1.158537, -0.304878, 33.094704
2700075, 0.020264, -0.021240, 0.912598, 2.195122, -1.158537, -0.182927, 33.141762
2701708, 0.019287, -0.015625, 0.927246, 2.256098, -0.975610, -0.182927, 33.094704
2703341, 0.019531, -0.017334, 0.919434, 2.195122, -1.036585, -0.182927, 33.047646
2704975, 0.023438, -0.013428, 0.913086, 2.195122, -1.036585, -0.243902, 33.094704
2706615, 0.020020, -0.012695, 0.904053, 2.195122, -1.036585, -0.243902, 33.094704
2708248, 0.021729, -0.021729, 0.909668, 2.256098, -0.914634, -0.060976, 33.094704
2709882, 0.017090, -0.016113, 0.911133, 2.195122, -1.097561, -0.121951, 33.141762
2711516, 0.019287, -0.017090, 0.913086, 2.256098, -1.036585, -0.426829, 33.188824
2713149, 0.022949, -0.013428, 0.913818, 2.195122, -1.158537, -0.243902, 33.141762
2714782, 0.022949, -0.017334, 0.916016, 2.256098, -0.975610, -0.243902, 33.188824
2716416, 0.027588, -0.016602, 0.913330, 2.256098, -0.975610, -0.182927, 33.047646
2718049, 0.020020, -0.013428, 0.911133, 2.195122, -1.158537, -0.182927, 33.188824
2719683, 0.020020, -0.013428, 0.910400, 2.195122, -1.036585, -0.182927, 33.141762
2721316, 0.019531, -0.016846, 0.912598, 2.195122, -1.158537, -0.182927, 33.094704
2722949, 0.018799, -0.016602, 0.912598, 2.134146, -1.036585, -0.182927, 33.047646
2724583, 0.018555, -0.016357, 0.908447, 2.073171, -1.097561, -0.182927, 33.094704
2726216, 0.018555, -0.015869, 0.915527, 2.256098, -1.036585, 0.000000, 33.094704
2727850, 0.020752, -0.017578, 0.914062, 2.134146, -1.158537, 0.000000, 33.141762
2729483, 0.015869, -0.015625, 0.919434, 2.012195, -1.097561, -0.243902, 33.094704
2731117, 0.022949, -0.016602, 0.911621, 2.195122, -0.975610, -0.182927, 33.141762
2732751, 0.019775, -0.013672, 0.920410, 2.195122, -1.097561, -0.182927, 33.094704
2734384, 0.025391, -0.012939, 0.915283, 2.256098, -1.280488, -0.121951, 33.141762
2736007, 0.020508, -0.021729, 0.916504, 2.012195, -1.158537, -0.121951, 33.094704
2737641, 0.019043, -0.017334, 0.913574, 2.012195, -1.219512, -0.243902, 33.188824
2739274, 0.014404, -0.017578, 0.918213, 2.256098, -1.036585, -0.243902, 33.094704
2740908, 0.022217, -0.017578, 0.922119, 2.195122, -1.036585, -0.304878, 33.047646
2742541, 0.021973, -0.017578, 0.916748, 2.256098, -1.219512, -0.182927, 33.000587
2744174, 0.016602, -0.013184, 0.914551, 2.256098, -1.158537, -0.243902, 33.047646
2745808, 0.018799, -0.013428, 0.914551, 2.195122, -1.036585, -0.304878, 33.094704
2747441, 0.017090, -0.014893, 0.916260, 2.073171, -1.219512, -0.121951, 33.047646
2749075, 0.020508, -0.013916, 0.913330, 2.073171, -1.341463, -0.243902, 33.188824
2750708, 0.025879, -0.019775, 0.914551, 2.195122, -1.219512, -0.243902, 33.141762
2752341, 0.021729, -0.014893, 0.910400, 2.256098, -1.036585, -0.182927, 33.188824
2753975, 0.022949, -0.016113, 0.917969, 2.195122, -1.097561, -0.304878, 33.141762
2755615, 0.019043, -0.013672, 0.910889, 2.134146, -1.097561, 0.121951, 33.094704
2757248, 0.023438, -0.011475, 0.926025, 2.073171, -1.158537, -0.121951, 33.094704
2758882, 0.018311, -0.012451, 0.910400, 2.195122, -1.219512, -0.243902, 33.141762
2760516, 0.015869, -0.014648, 0.909424, 2.317073, -1.219512, -0.060976, 33.094704
2762149, 0.021240, -0.017334, 0.909668, 2.134146, -1.158537, -0.182927, 33.141762
2763782, 0.024170, -0.014648, 0.915039, 2.195122, -0.975610, -0.182927, 33.094704
2765416, 0.017578, -0.014404, 0.914551, 2.378049, -0.792683, -0.243902, 33.141762
2767049, 0.019287, -0.019775, 0.912598, 2.317073, -1.036585, -0.121951, 33.094704
2768683, 0.025635, -0.017334, 0.913330, 2.134146, -1.158537, -0.243902, 33.141762
2770316, 0.016846, -0.013184, 0.916260, 1.951220, -1.158537, -0.243902, 33.000587
2771949, 0.020996, -0.013672, 0.911621, 2.134146, -1.158537, -0.182927, 33.141762
2773583, 0.016602, -0.016113, 0.908936, 2.134146, -0.914634, -0.060976, 33.188824
2775216, 0.014404, -0.016357, 0.909668, 2.134146, -0.914634, -0.243902, 33.047646
2776850, 0.015137, -0.020752, 0.914795, 2.012195, -0.975610, -0.182927, 33.094704
2778483, 0.015869, -0.020264, 0.906738, 2.073171, -0.853659, -0.182927, 33.141762
2780117, 0.019043, -0.016846, 0.912109, 2.256098, -1.158537, -0.243902, 33.094704
2781751, 0.018311, -0.011475, 0.919189, 2.195122, -1.097561, -0.243902, 33.141762
2783384, 0.023926, -0.010498, 0.927246, 2.195122, -0.914634, -0.182927, 33.141762
2785007, 0.016846, -0.014893, 0.916504, 2.134146, -1.036585, -0.060976, 33.094704
2786641, 0.018555, -0.018311, 0.916016, 2.195122, -1.036585, -0.243902, 33.188824
2788274, 0.023193, -0.018799, 0.917480, 2.195122, -1.036585, -0.304878, 33.094704
2789908, 0.020508, -0.015381, 0.913330, 2.134146, -1.158537, -0.121951, 33.141762
2791541, 0.020020, -0.012451, 0.917969, 2.073171, -1.097561, -0.121951, 33.094704
2793174, 0.015869, -0.013916, 0.917236, 2.134146, -1.036585, -0.304878, 33.141762
2794808, 0.017334, -0.011719, 0.910156, 2.195122, -0.853659, -0.304878, 33.188824
2796441, 0.017822, -0.014160, 0.923096, 2.134146, -1.036585, -0.182927, 33.141762
2798075, 0.017578, -0.009277, 0.916504, 2.012195, -1.158537, -0.304878, 33.094704
2799708, 0.019775, -0.015381, 0.912598, 2.073171, -1.158537, -0.243902, 33.141762
2801341, 0.023926, -0.016113, 0.906738, 2.317073, -1.158537, -0.121951, 33.094704
2802975, 0.020264, -0.017822, 0.913818, 2.134146, -1.219512, -0.182927, 33.047646
2804615, 0.023193, -0.014648, 0.910400, 2.195122, -1.036585, -0.182927, 33.188824
2806248, 0.018066, -0.015137, 0.918701, 2.134146, -0.853659, -0.121951, 33.141762
2807882, 0.018311, -0.020752, 0.915283, 2.073171, -1.219512, -0.182927, 33.094704
2809516, 0.018066, -0.015625, 0.911377, 1.951220, -1.280488, -0.182927, 33.141762
2811149, 0.022217, -0.016846, 0.911621, 2.256098, -1.036585, -0.243902, 33.188824
2812782, 0.020996, -0.018066, 0.917480, 2.195122, -1.097561, -0.365854, 33.047646
2814416, 0.020264, -0.017090, 0.913574, 2.195122, -1.158537, -0.182927, 33.141762
2816049, 0.016357, -0.015625, 0.913086, 2.073171, -1.158537, -0.121951, 33.188824
2817683, 0.018311, -0.012939, 0.908936, 2.195122, -0.975610, -0.182927, 33.188824
2819316, 0.021973, -0.013916, 0.920410, 2.317073, -1.097561, -0.182927, 33.094704
2820949, 0.023926, -0.014648, 0.907471, 2.012195, -1.036585, -0.121951, 33.141762
2822583, 0.020996, -0.018799, 0.915771, 2.073171, -1.036585, -0.121951, 33.094704
2824216, 0.017822, -0.011230, 0.924561, 2.256098, -1.036585, -0.060976, 33.047646
2825850, 0.020508, -0.019287, 0.916504, 2.195122, -1.158537, -0.182927, 33.094704
2827483, 0.021729, -0.013184, 0.917725, 2.073171, -1.036585, -0.060976, 33.141762
2829117, 0.017578, -0.014648, 0.915283, 2.195122, -0.975610, -0.060976, 33.094704
2830751, 0.021240, -0.016357, 0.916260, 2.378049, -1.097561, -0.121951, 33.141762
2832384, 0.020996, -0.015381, 0.915527, 2.317073, -1.097561, -0.060976, 33.094704
2834007, 0.012451, -0.019287, 0.912354, 2.134146, -1.036585, -0.243902, 33.047646
2835641, 0.017578, -0.016357, 0.914062, 2.073171, -1.036585, -0.243902, 33.094704
2837274, 0.021484, -0.019043, 0.912109, 2.012195, -1.036585, -0.182927, 33.047646
2838908, 0.023438, -0.018311, 0.909668, 2.134146, -0.975610, -0.182927, 33.094704
2840541, 0.020996, -0.013672, 0.915039, 2.317073, -1.036585, -0.182927, 33.141762
2842174, 0.023926, -0.010010, 0.911377, 2.317073, -1.097561, -0.304878, 33.188824
2843808, 0.015137, -0.008057, 0.911865, 2.256098, -1.036585, -0.365854, 33.141762
2845441, 0.016357, -0.011719, 0.912598, 2.134146, -0.914634, -0.182927, 33.141762
2847075, 0.018555, -0.011719, 0.919189, 2.134146, -1.097561, -0.182927, 33.094704
2848708, 0.023193, -0.011963, 0.914551, 2.317073, -1.097561, -0.060976, 33.094704
2850341, 0.020020, -0.014160, 0.908691, 2.195122, -0.792683, -0.243902, 33.188824
2851975, 0.024170, -0.017822, 0.916016, 2.134146, -0.792683, -0.060976, 33.141762
2853615, 0.022217, -0.014648, 0.912598, 2.134146, -0.914634, -0.121951, 33.188824
2855248, 0.024170, -0.019775, 0.911865, 2.317073, -1.158537, -0.304878, 33.141762
2856882, 0.021484, -0.015381, 0.913086, 2.012195, -1.219512, -0.182927, 33.094704
2858516, 0.024170, -0.019531, 0.913818, 2.256098, -1.219512, -0.243902, 33.047646
2860149, 0.024414, -0.021484, 0.916016, 2.195122, -0.914634, -0.487805, 33.094704
2861782, 0.020752, -0.014893, 0.906738, 2.073171, -1.219512, -0.304878, 33.141762
2863416, 0.018066, -0.020264, 0.914795, 2.134146, -1.158537, -0.304878, 33.094704
2865049, 0.019531, -0.018311, 0.916992, 2.317073, -1.036585, -0.060976, 33.141762
2866683, 0.018311, -0.017090, 0.910645, 2.378049, -1.036585, 0.000000, 33.094704
2868316, 0.022461, -0.015381, 0.905029, 2.195122, -1.097561, -0.243902, 33.141762
2869949, 0.026611, -0.020752, 0.914795, 2.012195, -1.036585, -0.182927, 33.094704
2871583, 0.024170, -0.020752, 0.919189, 2.256098, -1.036585, -0.060976, 33.047646
2873216, 0.022705, -0.015381, 0.908691, 2.195122, -1.158537, -0.121951, 33.141762
2874850, 0.016602, -0.013428, 0.912109, 2.256098, -0.914634, -0.243902, 33.094704
2876483, 0.021973, -0.013916, 0.909180, 2.195122, -1.036585, -0.304878, 33.047646
2878117, 0.024414, -0.018311, 0.916504, 2.195122, -0.853659, -0.121951, 33.188824
2879751, 0.027344, -0.016113, 0.909424, 1.951220, -1.036585, -0.182927, 33.000587
2881384, 0.023438, -0.011719, 0.912354, 2.256098, -1.219512, -0.121951, 33.188824
2883007, 0.019531, -0.018555, 0.914062, 2.134146, -0.853659, -0.243902, 33.047646
2884641, 0.020996, -0.020020, 0.907715, 2.073171, -0.914634, -0.243902, 33.188824
2886274, 0.019287, -0.012695, 0.909180, 2.073171, -1.158537, -0.365854, 33.047646
2887908, 0.017822, -0.018311, 0.920410, 2.073171, -1.158537, -0.304878, 33.188824
2889541, 0.022949, -0.016846, 0.919678, 2.012195, -1.219512, -0.243902, 33.047646
2891174, 0.013916, -0.012939, 0.917236, 2.134146, -1.219512, -0.182927, 33.188824
2892808, 0.030029, -0.015869, 0.914551, 2.134146, -0.914634, -0.304878, 33.141762
2894441, 0.023926, -0.018555, 0.918457, 2.134146, -0.914634, -0.182927, 33.000587
2896075, 0.019287, -0.012207, 0.909912, 2.012195, -1.158537, -0.121951, 33.141762
2897708, 0.021729, -0.012939, 0.912598, 2.012195, -1.036585, -0.121951, 33.094704
2899341, 0.018799, -0.015381, 0.919434, 2.134146, -1.097561, -0.426829, 33.141762
2900975, 0.018066, -0.018066, 0.911377, 2.134146, -0.975610, -0.365854, 33.094704
2902615, 0.018066, -0.019043, 0.911133, 2.378049, -1.158537, -0.121951, 33.094704
2904248, 0.024902, -0.012695, 0.910889, 2.195122, -1.219512, -0.243902, 33.141762
2905882, 0.012695, -0.017578, 0.919189, 2.134146, -1.158537, -0.426829, 33.094704
2907516, 0.018555, -0.019531, 0.917725, 2.134146, -1.158537, -0.060976, 33.235882
2909149, 0.018066, -0.017334, 0.912354, 2.195122, -1.097561, -0.121951, 33.188824
2910782, 0.020020, -0.018555, 0.920654, 2.012195, -1.097561, -0.121951, 33.094704
2912416, 0.023926, -0.020264, 0.916748, 2.256098, -1.097561, -0.121951, 33.000587
2914049, 0.023193, -0.018799, 0.919922, 2.256098, -1.219512, -0.182927, 33.141762
2915683, 0.015381, -0.013672, 0.912354, 2.195122, -1.036585, -0.060976, 33.188824
2917316, 0.017822, -0.013672, 0.912842, 2.195122, -1.158537, -0.060976, 33.141762
2918949, 0.015137, -0.015137, 0.913330, 2.195122, -0.975610, -0.304878, 33.000587
2920583, 0.013672, -0.019043, 0.912598, 2.195122, -0.975610, -0.243902, 33.141762
2922216, 0.020752, -0.021729, 0.913086, 2.073171, -1.036585, -0.182927, 33.188824
2923850, 0.016357, -0.012939, 0.911377, 2.195122, -1.158537, -0.243902, 33.141762
2925483, 0.020996, -0.018555, 0.912354, 2.134146, -0.975610, -0.304878, 33.094704
2927117, 0.013428, -0.013916, 0.916504, 1.951220, -1.097561, -0.121951, 33.047646
2928751, 0.015625, -0.010010, 0.909912, 2.195122, -0.853659, -0.304878, 33.094704
2930384, 0.019287, -0.014893, 0.912598, 2.134146, -1.036585, -0.243902, 33.188824
2932007, 0.017822, -0.014404, 0.919678, 2.195122, -0.975610, 0.000000, 33.047646
2933641, 0.022217, -0.017578, 0.917236, 2.195122, -1.097561, -0.243902, 33.000587
2935274, 0.017578, -0.019287, 0.907227, 2.195122, -1.097561, -0.182927, 33.141762
2936908, 0.021973, -0.016846, 0.910645, 2.195122, -1.280488, -0.060976, 33.094704
2938541, 0.019287, -0.014404, 0.916748, 2.195122, -1.097561, -0.243902, 33.047646
2940174, 0.019287, -0.015381, 0.906982, 2.134146, -1.036585, -0.304878, 33.094704
2941808, 0.017334, -0.020508, 0.915039, 2.256098, -0.914634, -0.243902, 33.094704
2943441, 0.022949, -0.016357, 0.920166, 2.378049, -0.975610, -0.243902, 33.094704
2945075, 0.015137, -0.015869, 0.911133, 2.195122, -0.975610, -0.182927, 33.141762
2946708, 0.024658, -0.019287, 0.910400, 2.134146, -1.036585, -0.060976, 33.188824
2948341, 0.020264, -0.016113, 0.912354, 2.134146, -0.792683, -0.243902, 33.047646
2949975, 0.018066, -0.020020, 0.909180, 2.195122, -0.975610, -0.243902, 33.188824
2951615, 0.014160, -0.016602, 0.911133, 2.073171, -1.036585, -0.121951, 33.141762
2953248, 0.022217, -0.020264, 0.920898, 2.256098, -1.036585, -0.182927, 33.000587
2954882, 0.016113, -0.016846, 0.911133, 2.134146, -1.036585, -0.182927, 33.047646
2956516, 0.020508, -0.016113, 0.917236, 2.134146, -1.158537, -0.182927, 33.094704
2958149, 0.019775, -0.012451, 0.919434, 2.195122, -1.097561, -0.365854, 33.141762
2959782, 0.019531, -0.018555, 0.919189, 2.073171, -1.036585, -0.060976, 33.188824
2961416, 0.025391, -0.020020, 0.918945, 2.012195, -1.097561, -0.182927, 33.188824
2963049, 0.020264, -0.014160, 0.914307, 1.890244, -1.036585, -0.365854, 33.047646
2964683, 0.022705, -0.016113, 0.915771, 2.073171, -1.097561, -0.182927, 33.094704
2966316, 0.014160, -0.016357, 0.905518, 2.256098, -0.975610, -0.060976, 33.141762
2967949, 0.016602, -0.015625, 0.907959, 2.195122, -1.219512, -0.304878, 33.000587
2969583, 0.018555, -0.012451, 0.911865, 2.073171, -1.158537, -0.304878, 33.141762
2971216, 0.019287, -0.013916, 0.918457, 2.317073, -0.853659, -0.304878, 33.094704
2972850, 0.020996, -0.016846, 0.920410, 2.256098, -1.097561, -0.304878, 33.141762
2974483, 0.020508, -0.014648, 0.913818, 2.134146, -1.097561, -0.121951, 33.188824
2976117, 0.019043, -0.011475, 0.910645, 2.012195, -1.280488, -0.060976, 33.141762
2977751, 0.017822, -0.011475, 0.908936, 2.317073, -1.158537, -0.304878, 33.094704
2979384, 0.021729, -0.019775, 0.919678, 2.256098, -0.975610, -0.243902, 33.141762
2981007, 0.018555, -0.015137, 0.914551, 2.134146, -1.158537, -0.121951, 33.094704
2982641, 0.015625, -0.015869, 0.913330, 2.012195, -1.097561, -0.121951, 33.047646
2984274, 0.021240, -0.014648, 0.918701, 2.256098, -0.914634, -0.060976, 33.188824
2985908, 0.018555, -0.016602, 0.921143, 2.439024, -1.097561, -0.365854, 33.047646
2987541, 0.019775, -0.012695, 0.912598, 2.073171, -1.341463, -0.182927, 33.094704
2989174, 0.016602, -0.018799, 0.918945, 2.317073, -1.097561, -0.243902, 33.141762
2990808, 0.019775, -0.016602, 0.904541, 2.134146, -1.036585, -0.121951, 33.188824
2992441, 0.021729, -0.020020, 0.915039, 2.073171, -1.036585, -0.243902, 33.188824
2994075, 0.016846, -0.014160, 0.917480, 2.073171, -1.097561, -0.243902, 33.047646
2995708, 0.021729, -0.013428, 0.913574, 2.012195, -1.158537, -0.243902, 33.188824
2997341, 0.016113, -0.017090, 0.917236, 2.134146, -1.280488, -0.304878, 33.141762
2998975, 0.020264, -0.015137, 0.917969, 2.256098, -0.914634, -0.304878, 33.188824
3000615, 0.018066, -0.011475, 0.914795, 2.012195, -1.036585, -0.365854, 33.047646
3002248, 0.018555, -0.015137, 0.916504, 2.073171, -1.158537, -0.365854, 33.094704
3003882, 0.020996, -0.016602, 0.913574, 2.134146, -0.975610, -0.182927, 33.141762
3005516, 0.020996, -0.014160, 0.910889, 2.195122, -0.853659, -0.121951, 33.094704
3007149, 0.021729, -0.010498, 0.914062, 2.134146, -1.219512, -0.365854, 33.047646
3008782, 0.022217, -0.014648, 0.917725, 2.195122, -1.219512, -0.487805, 33.094704
3010416, 0.020508, -0.019043, 0.916992, 2.256098, -0.975610, -0.182927, 33.235882
3012049, 0.016357, -0.021973, 0.913818, 2.073171, -1.036585, -0.243902, 33.094704
3013683, 0.016602, -0.021729, 0.914062, 2.012195, -1.341463, -0.243902, 33.141762
3015316, 0.012939, -0.013672, 0.917480, 2.134146, -1.219512, -0.182927, 33.188824
3016949, 0.024170, -0.013184, 0.928467, 2.134146, -1.219512, -0.060976, 33.141762
3018583, 0.019775, -0.010254, 0.921631, 2.195122, -1.036585, -0.121951, 33.141762
3020216, 0.016602, -0.014160, 0.916016, 2.134146, -1.219512, -0.121951, 33.094704
3021850, 0.021240, -0.016846, 0.910889, 1.951220, -0.914634, 0.000000, 33.094704
3023483, 0.023438, -0.014648, 0.912354, 2.134146, -0.975610, -0.182927, 33.000587
3025117, 0.020996, -0.004883, 0.917969, 2.134146, -1.097561, -0.365854, 33.141762
3026751, 0.019287, -0.010010, 0.909912, 2.012195, -1.158537, -0.426829, 33.094704
3028384, 0.018311, -0.014893, 0.915039, 2.073171, -1.219512, -0.182927, 33.141762
3030007, 0.023926, -0.018799, 0.914062, 2.317073, -1.097561, -0.182927, 33.094704
3031641, 0.021973, -0.016357, 0.915527, 2.256098, -0.975610, -0.121951, 33.141762
3033274, 0.023682, -0.010742, 0.925293, 2.134146, -1.097561, -0.121951, 33.094704
3034908, 0.014160, -0.014893, 0.918945, 2.134146, -1.219512, -0.121951, 33.141762
3036541, 0.019287, -0.016846, 0.920410, 2.134146, -0.975610, -0.304878, 33.094704
3038174, 0.017822, -0.014404, 0.920898, 2.195122, -0.975610, -0.243902, 33.141762
3039808, 0.019287, -0.015381, 0.915283, 2.256098, -1.097561, -0.121951, 33.094704
3041441, 0.017090, -0.017334, 0.915283, 2.134146, -1.219512, -0.243902, 33.047646
3043075, 0.017578, -0.015869, 0.915039, 2.134146, -1.280488, -0.304878, 33.094704
3044708, 0.018066, -0.014160, 0.912354, 2.256098, -1.036585, -0.304878, 33.141762
3046341, 0.017822, -0.010010, 0.912354, 2.256098, -0.975610, -0.304878, 33.094704
3047975, 0.021729, -0.018555, 0.913330, 2.195122, -1.036585, -0.304878, 33.141762
3049615, 0.020020, -0.012695, 0.915039, 2.378049, -0.975610, 0.000000, 33.141762
3051248, 0.026123, -0.018311, 0.917725, 2.256098, -1.097561, -0.121951, 33.094704
3052882, 0.020508, -0.014404, 0.921143, 2.256098, -1.280488, -0.182927, 33.094704
3054516, 0.022461, -0.013428, 0.909912, 2.012195, -1.036585, -0.243902, 33.094704
3056149, 0.017334, -0.012451, 0.917969, 2.012195, -1.158537, -0.182927, 33.141762
3057782, 0.017090, -0.015869, 0.911133, 2.256098, -0.853659, -0.243902, 33.188824
3059416, 0.016357, -0.018311, 0.915527, 2.195122, -0.731707, -0.365854, 33.047646
3061049, 0.020508, -0.015625, 0.911621, 2.073171, -1.036585, -0.060976, 33.188824
3062683, 0.022949, -0.013428, 0.907227, 2.195122, -1.097561, -0.060976, 33.141762
3064316, 0.018311, -0.016846, 0.912598, 2.195122, -1.158537, -0.365854, 33.188824
3065949, 0.021729, -0.015381, 0.916748, 2.256098, -1.097561, -0.182927, 33.141762
3067583, 0.018799, -0.010986, 0.917480, 1.951220, -1.036585, -0.182927, 33.000587
3069216, 0.014648, -0.019287, 0.914307, 2.256098, -1.158537, -0.426829, 33.047646
3070850, 0.021729, -0.018311, 0.912109, 2.195122, -1.158537, 0.000000, 33.094704
3072483, 0.023438, -0.017822, 0.919678, 2.012195, -1.158537, -0.182927, 33.141762
3074117, 0.020996, -0.015137, 0.915771, 2.134146, -1.036585, -0.182927, 33.188824
3075751, 0.019775, -0.012695, 0.917236, 2.195122, -0.975610, -0.304878, 33.141762
3077384, 0.015869, -0.017090, 0.909668, 2.195122, -0.975610, -0.182927, 33.047646
3079007, 0.021973, -0.009521, 0.913330, 2.134146, -1.219512, -0.121951, 33.000587
3080641, 0.016113, -0.016357, 0.921143, 2.195122, -0.975610, -0.182927, 33.141762
3082274, 0.015869, -0.018799, 0.918945, 2.073171, -0.792683, -0.243902, 33.188824
3083908, 0.014893, -0.017090, 0.926514, 2.073171, -0.792683, -0.182927, 33.094704
3085541, 0.022949, -0.017090, 0.915039, 2.378049, -1.158537, -0.182927, 33.094704
3087174, 0.022461, -0.021729, 0.926025, 2.134146, -1.097561, -0.365854, 33.047646
3088808, 0.019043, -0.014893, 0.922363, 2.073171, -0.914634, -0.121951, 33.188824
3090441, 0.017822, -0.015381, 0.905762, 2.256098, -0.853659, 0.000000, 33.047646
3092075, 0.023438, -0.015137, 0.914795, 2.134146, -1.036585, -0.182927, 33.188824
3093708, 0.021729, -0.010498, 0.911865, 2.012195, -0.853659, -0.121951, 33.141762
3095341, 0.015137, -0.015381, 0.916016, 2.195122, -0.914634, -0.365854, 33.282940
3096975, 0.023438, -0.016357, 0.919434, 2.195122, -1.097561, -0.121951, 33.047646
3098615, 0.020752, -0.017578, 0.910645, 2.134146, -1.280488, -0.121951, 33.094704
3100248, 0.021484, -0.017334, 0.912109, 2.195122, -1.219512, -0.243902, 33.141762
3101882, 0.019775, -0.017090, 0.916016, 2.378049, -1.158537, -0.365854, 33.188824
3103516, 0.016846, -0.013672, 0.921143, 2.256098, -1.036585, -0.121951, 33.141762
3105149, 0.018066, -0.010498, 0.921875, 2.256098, -1.097561, -0.304878, 33.188824
3106782, 0.018311, -0.010986, 0.916504, 2.073171, -1.036585, -0.365854, 33.000587
3108416, 0.018555, -0.020508, 0.919434, 2.195122, -0.975610, -0.243902, 33.141762
3110049, 0.020264, -0.017822, 0.914307, 2.317073, -1.036585, -0.121951, 33.094704
3111683, 0.020508, -0.020020, 0.916260, 2.256098, -1.158537, -0.182927, 33.047646
3113316, 0.022949, -0.023193, 0.920898, 2.195122, -1.097561, -0.060976, 33.000587
3114949, 0.018555, -0.019775, 0.913574, 2.073171, -1.158537, -0.243902, 33.188824
3116583, 0.019775, -0.017578, 0.913818, 2.073171, -0.853659, -0.243902, 33.188824
3118216, 0.026367, -0.017822, 0.908936, 2.195122, -1.036585, -0.060976, 33.141762
3119850, 0.023438, -0.013672, 0.912354, 2.256098, -1.158537, -0.182927, 33.094704
3121483, 0.018311, -0.015137, 0.920166, 2.317073, -1.097561, -0.060976, 33.141762
3123117, 0.019287, -0.016846, 0.914551, 2.012195, -0.914634, -0.121951, 33.094704
3124751, 0.024414, -0.015381, 0.909424, 1.951220, -1.036585, -0.060976, 33.141762
3126384, 0.020508, -0.015381, 0.919434, 2.073171, -1.219512, -0.243902, 33.094704
3128007, 0.018066, -0.020020, 0.908447, 2.134146, -1.219512, -0.304878, 33.141762
3129641, 0.022705, -0.018555, 0.911133, 2.134146, -1.158537, -0.060976, 33.094704
3131274, 0.018555, -0.013428, 0.913086, 2.073171, -1.097561, -0.182927, 33.047646
3132908, 0.018066, -0.013916, 0.910645, 2.256098, -1.097561, -0.121951, 33.188824
3134541, 0.020996, -0.019287, 0.907715, 2.317073, -1.280488, 0.000000, 33.047646
3136174, 0.020996, -0.019043, 0.913818, 2.073171, -1.158537, -0.121951, 33.094704
3137808, 0.020508, -0.017090, 0.913086, 2.073171, -0.975610, -0.060976, 33.141762
3139441, 0.017578, -0.017578, 0.921875, 2.195122, -0.975610, -0.304878, 33.047646
3141075, 0.022949, -0.019287, 0.916748, 2.195122, -1.036585, -0.121951, 33.094704
3142708, 0.025879, -0.013428, 0.916016, 2.195122, -1.097561, -0.182927, 33.141762
3144341, 0.018799, -0.017578, 0.916504, 2.134146, -0.975610, -0.304878, 33.094704
3145975, 0.018066, -0.017334, 0.910645, 2.134146, -1.097561, -0.304878, 33.094704
3147615, 0.026611, -0.018555, 0.914062, 2.195122, -1.036585, -0.243902, 33.188824
3149248, 0.018555, -0.014893, 0.914795, 2.134146, -1.097561, -0.182927, 33.141762
3150882, 0.022949, -0.013916, 0.910889, 2.195122, -1.036585, -0.304878, 33.188824
3152516, 0.023926, -0.015869, 0.921631, 2.256098, -1.036585, -0.182927, 33.141762
3154149, 0.024658, -0.015869, 0.913818, 2.195122, -1.036585, -0.243902, 33.094704
3155782, 0.025146, -0.014648, 0.912354, 2.134146, -1.219512, -0.243902, 33.141762
3157416, 0.020508, -0.021240, 0.916504, 2.134146, -0.975610, -0.243902, 33.188824
3159049, 0.017578, -0.018066, 0.913330, 2.195122, -1.158537, -0.121951, 33.141762
3160683, 0.024414, -0.017334, 0.906738, 2.073171, -1.036585, -0.121951, 33.188824
3162316, 0.020264, -0.017822, 0.911865, 2.195122, -0.914634, -0.182927, 33.141762
3163949, 0.021973, -0.016113, 0.916016, 2.195122, -1.036585, -0.243902, 33.188824
3165583, 0.023682, -0.012695, 0.918701, 2.134146, -1.158537, -0.243902, 33.094704
3167216, 0.017578, -0.020264, 0.915527, 2.317073, -1.036585, -0.121951, 33.141762
3168850, 0.019531, -0.021240, 0.916748, 2.012195, -1.036585, -0.121951, 33.094704
3170483, 0.021729, -0.017090, 0.918945, 1.951220, -1.036585, -0.060976, 33.235882
3172117, 0.018555, -0.014893, 0.905273, 2.195122, -1.097561, -0.060976, 33.094704
3173751, 0.021484, -0.011719, 0.913818, 2.073171, -1.158537, -0.304878, 33.141762
3175384, 0.023682, -0.012695, 0.914062, 2.012195, -1.097561, -0.182927, 33.188824
3177007, 0.022217, -0.015869, 0.920898, 2.195122, -0.975610, -0.365854, 33.141762
3178641, 0.017090, -0.014160, 0.913818, 2.012195, -1.036585, -0.365854, 33.094704
3180274, 0.015869, -0.013184, 0.916748, 2.073171, -1.158537, -0.426829, 33.141762
3181908, 0.018311, -0.014893, 0.917480, 2.134146, -1.158537, -0.060976, 33.094704
3183541, 0.022461, -0.019043, 0.910400, 2.195122, -1.097561, -0.182927, 33.141762
3185174, 0.017334, -0.016357, 0.918701, 2.134146, -1.158537, -0.182927, 33.094704
3186808, 0.022217, -0.021484, 0.910400, 2.073171, -1.097561, -0.304878, 33.047646
3188441, 0.020996, -0.012939, 0.911133, 2.012195, -1.158537, -0.243902, 33.094704
3190075, 0.017822, -0.016846, 0.909180, 2.073171, -0.975610, -0.182927, 33.047646
3191708, 0.015137, -0.013672, 0.914307, 2.073171, -1.036585, -0.182927, 33.094704
3193341, 0.016357, -0.012207, 0.915527, 2.195122, -1.158537, -0.243902, 33.141762
3194975, 0.017090, -0.013672, 0.914307, 2.195122, -1.219512, -0.121951, 33.094704
3196615, 0.021484, -0.012695, 0.917236, 1.951220, -1.097561, -0.182927, 33.094704
3198248, 0.023682, -0.016846, 0.916260, 2.195122, -1.219512, -0.182927, 33.141762
3199882, 0.023438, -0.012939, 0.921387, 2.256098, -1.036585, -0.121951, 33.094704
3201516, 0.015381, -0.021729, 0.907471, 1.951220, -0.975610, -0.121951, 33.141762
3203149, 0.025391, -0.012451, 0.908936, 2.073171, -1.158537, -0.182927, 33.188824
3204782, 0.022461, -0.015625, 0.911621, 2.317073, -0.975610, -0.060976, 33.047646
3206416, 0.017822, -0.021240, 0.916504, 2.195122, -1.036585, -0.243902, 33.094704
3208049, 0.016113, -0.019287, 0.911621, 2.195122, -0.914634, -0.426829, 33.047646
3209683, 0.019043, -0.016113, 0.917480, 2.317073, -1.158537, -0.243902, 33.094704
3211316, 0.020020, -0.015381, 0.915283, 2.073171, -1.097561, -0.365854, 33.141762
3212949, 0.017090, -0.013184, 0.914795, 2.012195, -1.158537, -0.182927, 33.188824
3214583, 0.022705, -0.014160, 0.909912, 2.195122, -1.219512, -0.426829, 33.047646
3216216, 0.022217, -0.016113, 0.913574, 2.073171, -1.097561, -0.365854, 33.094704
3217850, 0.024170, -0.017578, 0.913086, 2.195122, -1.036585, -0.182927, 33.141762
3219483, 0.016602, -0.018066, 0.920410, 2.256098, -1.036585, -0.121951, 33.094704
3221117, 0.020752, -0.012939, 0.921631, 2.073171, -1.158537, -0.243902, 33.141762
3222751, 0.020996, -0.015381, 0.916504, 2.073171, -1.097561, -0.426829, 33.094704
3224384, 0.017578, -0.018066, 0.908203, 2.195122, -0.914634, -0.304878, 33.094704
3226007, 0.026367, -0.015869, 0.916992, 2.195122, -1.219512, 0.000000, 33.000587
3227641, 0.019775, -0.017334, 0.913330, 2.012195, -1.280488, -0.182927, 33.094704
3229274, 0.017334, -0.016846, 0.922363, 2.195122, -1.097561, -0.060976, 33.141762
3230908, 0.017822, -0.017090, 0.922363, 2.134146, -1.036585, -0.243902, 33.094704
3232541, 0.018799, -0.015381, 0.916260, 2.195122, -1.036585, -0.243902, 33.141762
3234174, 0.018311, -0.013916, 0.908691, 2.134146, -1.158537, -0.121951, 33.094704
3235808, 0.018311, -0.016113, 0.915039, 2.256098, -1.097561, -0.182927, 33.141762
3237441, 0.016602, -0.017822, 0.911377, 2.256098, -1.158537, -0.243902, 33.188824
3239075, 0.019043, -0.023438, 0.913574, 2.134146, -1.036585, 0.000000, 33.235882
3240708, 0.022705, -0.019287, 0.912842, 2.317073, -0.975610, -0.121951, 33.188824
3242341, 0.018311, -0.009521, 0.917725, 2.195122, -1.158537, -0.121951, 33.141762
3243975, 0.017090, -0.011719, 0.922852, 2.195122, -0.914634, -0.121951, 33.188824
3245615, 0.016846, -0.018555, 0.908936, 2.256098, -1.097561, -0.182927, 33.141762
3247248, 0.022461, -0.015869, 0.915771, 2.073171, -1.158537, -0.121951, 33.188824
3248882, 0.019287, -0.015137, 0.913574, 1.951220, -1.097561, -0.243902, 33.047646
3250516, 0.019775, -0.017334, 0.918213, 2.195122, -0.914634, -0.243902, 33.188824
3252149, 0.017334, -0.008057, 0.913330, 2.195122, -1.097561, -0.304878, 33.141762
3253782, 0.020264, -0.010498, 0.922852, 2.195122, -1.036585, -0.182927, 33.141762
3255416, 0.016602, -0.016113, 0.917236, 2.256098, -0.975610, -0.060976, 33.094704
3257049, 0.015869, -0.018799, 0.909424, 2.256098, -0.975610, -0.426829, 33.094704
3258683, 0.015869, -0.009277, 0.926270, 2.134146, -0.914634, -0.182927, 33.188824
3260316, 0.012695, -0.016357, 0.915771, 2.256098, -1.158537, -0.182927, 33.141762
3261949, 0.019287, -0.010742, 0.911133, 2.195122, -1.036585, -0.060976, 33.188824
3263583, 0.020752, -0.014404, 0.911133, 2.012195, -1.097561, -0.060976, 33.141762
3265216, 0.017578, -0.015869, 0.912842, 2.195122, -1.158537, -0.121951, 33.094704
3266850, 0.018555, -0.015381, 0.921387, 2.073171, -1.097561, -0.121951, 33.141762
3268483, 0.020020, -0.018066, 0.921631, 1.951220, -1.158537, -0.060976, 33.094704
3270117, 0.014893, -0.019775, 0.909668, 2.256098, -1.158537, -0.121951, 33.047646
3271751, 0.018066, -0.016113, 0.915283, 2.195122, -1.036585, -0.121951, 33.094704
3273384, 0.025391, -0.015625, 0.907715, 2.134146, -1.097561, -0.243902, 33.141762
3275007, 0.023193, -0.014404, 0.917725, 2.073171, -1.158537, -0.182927, 33.094704
3276641, 0.025879, -0.018799, 0.913086, 2.012195, -1.219512, -0.121951, 33.047646
3278274, 0.022705, -0.020752, 0.914062, 2.073171, -0.975610, -0.060976, 33.000587
3279908, 0.023682, -0.021484, 0.910645, 2.195122, -1.097561, -0.243902, 33.141762
3281541, 0.022217, -0.017090, 0.909424, 2.134146, -0.914634, -0.243902, 33.188824
3283174, 0.017822, -0.019043, 0.911133, 2.195122, -1.158537, -0.243902, 33.235882
3284808, 0.019287, -0.014648, 0.912842, 2.195122, -1.097561, -0.304878, 33.141762
3286441, 0.020020, -0.013916, 0.916992, 2.134146, -1.036585, -0.365854, 33.094704
3288075, 0.019287, -0.014893, 0.913818, 2.134146, -1.036585, -0.121951, 33.094704
3289708, 0.027100, -0.007812, 0.908936, 2.195122, -1.219512, -0.304878, 33.094704
3291341, 0.022217, -0.014648, 0.914062, 2.256098, -1.158537, -0.365854, 33.141762
3292975, 0.021484, -0.012695, 0.912842, 2.073171, -1.097561, -0.182927, 33.094704
3294615, 0.022461, -0.018066, 0.913086, 2.195122, -0.914634, -0.182927, 33.141762
3296248, 0.019043, -0.015381, 0.917480, 2.134146, -1.097561, -0.304878, 33.094704
3297882, 0.021240, -0.018555, 0.918457, 2.256098, -1.280488, -0.182927, 33.141762
3299516, 0.022217, -0.017334, 0.912842, 2.012195, -1.097561, 0.000000, 33.094704
3301149, 0.024902, -0.016357, 0.912598, 2.012195, -1.097561, -0.060976, 33.141762
3302782, 0.015625, -0.016113, 0.924805, 2.073171, -0.975610, -0.243902, 33.094704
3304416, 0.020996, -0.015137, 0.921143, 2.134146, -1.097561, -0.182927, 33.047646
3306049, 0.016357, -0.020020, 0.920898, 2.256098, -1.280488, -0.182927, 33.000587
3307683, 0.017334, -0.014893, 0.909912, 2.195122, -1.158537, -0.182927, 33.047646
3309316, 0.014648, -0.013428, 0.910156, 2.256098, -1.036585, -0.182927, 33.094704
3310949, 0.014160, -0.020752, 0.909180, 2.073171, -1.097561, -0.182927, 33.141762
3312583, 0.015869, -0.014404, 0.915283, 2.012195, -1.097561, -0.304878, 33.141762
3314216, 0.019287, -0.015625, 0.914062, 2.134146, -0.975610, -0.182927, 33.094704
3315850, 0.021973, -0.016357, 0.905518, 2.378049, -0.853659, -0.182927, 33.141762
3317483, 0.023438, -0.015625, 0.913818, 2.195122, -1.036585, -0.426829, 33.094704
3319117, 0.020996, -0.024658, 0.905518, 2.256098, -1.097561, -0.304878, 33.094704
3320751, 0.019043, -0.014648, 0.910400, 2.317073, -1.097561, -0.304878, 33.188824
3322384, 0.018311, -0.016602, 0.917480, 2.134146, -0.914634, -0.365854, 33.047646
3324007, 0.019287, -0.017334, 0.916016, 2.195122, -1.097561, -0.243902, 33.188824
3325641, 0.017578, -0.016357, 0.908691, 2.195122, -0.853659, -0.243902, 33.141762
3327274, 0.009521, -0.017090, 0.916504, 2.012195, -1.036585, -0.243902, 33.094704
3328908, 0.020752, -0.014160, 0.915771, 2.317073, -1.097561, -0.243902, 33.141762
3330541, 0.015869, -0.016602, 0.913086, 2.317073, -1.036585, -0.243902, 33.094704
3332174, 0.027588, -0.014648, 0.913330, 2.195122, -1.097561, -0.304878, 33.141762
3333808, 0.018555, -0.019531, 0.919678, 2.073171, -1.219512, -0.182927, 33.094704
3335441, 0.013184, -0.019531, 0.915039, 2.073171, -0.975610, -0.243902, 33.141762
3337075, 0.012695, -0.018311, 0.914795, 2.317073, -1.097561, -0.182927, 33.094704
3338708, 0.018066, -0.013428, 0.915527, 2.195122, -1.219512, -0.121951, 33.141762
3340341, 0.019287, -0.013916, 0.917480, 2.195122, -0.914634, -0.365854, 33.094704
3341975, 0.016846, -0.015381, 0.914307, 2.195122, -1.036585, -0.182927, 33.235882
3343615, 0.021729, -0.015137, 0.907471, 2.256098, -1.036585, -0.243902, 33.141762
3345248, 0.026367, -0.012939, 0.917480, 2.256098, -0.975610, -0.182927, 33.094704
3346882, 0.025635, -0.020508, 0.918945, 2.073171, -1.097561, -0.121951, 33.141762
3348516, 0.023926, -0.012207, 0.908447, 2.134146, -1.097561, -0.304878, 33.094704
3350149, 0.016602, -0.019287, 0.903564, 2.195122, -1.097561, -0.243902, 33.000587
3351782, 0.023438, -0.016846, 0.907959, 2.256098, -0.914634, -0.365854, 33.094704
3353416, 0.019287, -0.011963, 0.915283, 2.256098, -1.158537, -0.304878, 33.141762
3355049, 0.018311, -0.015381, 0.917969, 2.195122, -1.036585, -0.304878, 33.188824
3356683, 0.023682, -0.018555, 0.907227, 2.012195, -0.975610, -0.426829, 33.141762
3358316, 0.019287, -0.018311, 0.918945, 2.195122, -1.158537, -0.304878, 33.094704
3359949, 0.018799, -0.020752, 0.924316, 2.195122, -1.036585, -0.121951, 33.141762
3361583, 0.016602, -0.016113, 0.919678, 2.195122, -1.158537, -0.182927, 33.094704
3363216, 0.020264, -0.015137, 0.920654, 2.256098, -1.097561, -0.365854, 33.141762
3364850, 0.020508, -0.011963, 0.915771, 2.134146, -0.975610, -0.060976, 33.094704
3366483, 0.021729, -0.016113, 0.914795, 2.195122, -0.975610, -0.243902, 33.141762
3368117, 0.020752, -0.019287, 0.911865, 2.134146, -0.914634, -0.121951, 33.094704
3369751, 0.023438, -0.015869, 0.918701, 2.256098, -1.036585, -0.182927, 33.141762
3371384, 0.015869, -0.022461, 0.924072, 2.256098, -1.036585, -0.243902, 33.047646
3373007, 0.023438, -0.020508, 0.918213, 2.195122, -0.975610, -0.243902, 33.094704
3374641, 0.019531, -0.017578, 0.915039, 2.134146, -1.097561, -0.243902, 33.141762
3376274, 0.023438, -0.020020, 0.910156, 2.073171, -1.036585, -0.121951, 33.188824
3377908, 0.022217, -0.011475, 0.922363, 2.256098, -1.219512, 0.000000, 33.141762
3379541, 0.021973, -0.013672, 0.922607, 2.012195, -1.219512, -0.121951, 33.188824
3381174, 0.022949, -0.014404, 0.915527, 2.073171, -1.219512, -0.182927, 33.094704
3382808, 0.016357, -0.017578, 0.906250, 2.317073, -1.097561, -0.060976, 33.094704
3384441, 0.015869, -0.010986, 0.917236, 2.073171, -0.975610, -0.121951, 33.235882
3386075, 0.019043, -0.015869, 0.910400, 2.195122, -1.097561, -0.304878, 33.094704
3387708, 0.022705, -0.015869, 0.915771, 2.256098, -1.097561, -0.365854, 33.141762
3389341, 0.019043, -0.018311, 0.911621, 2.134146, -1.097561, -0.243902, 33.188824
3390975, 0.025879, -0.012695, 0.913574, 2.195122, -0.975610, -0.060976, 33.141762
3392615, 0.017578, -0.018799, 0.914551, 2.195122, -1.036585, -0.182927, 33.094704
3394248, 0.018311, -0.011230, 0.912109, 2.195122, -1.158537, -0.365854, 33.047646
3395882, 0.017090, -0.016846, 0.915039, 2.195122, -0.975610, -0.121951, 33.094704
3397516, 0.028564, -0.018799, 0.912109, 2.256098, -1.036585, -0.304878, 33.047646
3399149, 0.024414, -0.013672, 0.919434, 2.134146, -1.097561, -0.243902, 33.094704
3400782, 0.019287, -0.020996, 0.904297, 2.256098, -1.036585, -0.243902, 33.188824
3402416, 0.014893, -0.016846, 0.919189, 2.073171, -0.975610, -0.182927, 33.141762
3404049, 0.022217, -0.014648, 0.919189, 2.073171, -1.219512, -0.243902, 33.188824
3405683, 0.019043, -0.024170, 0.919189, 2.134146, -1.158537, -0.182927, 33.141762
3407316, 0.022949, -0.015137, 0.913818, 2.195122, -1.097561, -0.060976, 33.094704
3408949, 0.015137, -0.020508, 0.911621, 2.134146, -1.097561, -0.243902, 33.047646
3410583, 0.018311, -0.020752, 0.910156, 2.073171, -0.975610, -0.121951, 33.188824
3412216, 0.020508, -0.014893, 0.919434, 2.134146, -1.158537, -0.243902, 33.141762
3413850, 0.014404, -0.011719, 0.911865, 2.134146, -1.158537, -0.487805, 33.188824
3415483, 0.020996, -0.017822, 0.922119, 2.195122, -0.914634, -0.121951, 33.141762
3417117, 0.020020, -0.015381, 0.920166, 2.073171, -1.036585, -0.060976, 33.094704
3418751, 0.021973, -0.016113, 0.916016, 2.256098, -1.158537, -0.304878, 33.047646
3420384, 0.018311, -0.015625, 0.916504, 2.134146, -1.158537, -0.243902, 33.094704
3422007, 0.014404, -0.019531, 0.914307, 2.134146, -1.097561, -0.182927, 33.141762
3423641, 0.020508, -0.020020, 0.917969, 2.134146, -1.097561, -0.304878, 33.094704
3425274, 0.017578, -0.012939, 0.915771, 2.256098, -1.158537, -0.182927, 33.141762
3426908, 0.019775, -0.010010, 0.917725, 2.256098, -1.280488, 0.000000, 33.188824
3428541, 0.020020, -0.017578, 0.925293, 2.134146, -0.792683, -0.121951, 33.141762
3430174, 0.014404, -0.014648, 0.926758, 2.256098, -0.731707, -0.121951, 33.188824
3431808, 0.014404, -0.017090, 0.920654, 2.195122, -1.158537, -0.243902, 33.094704
3433441, 0.019287, -0.014648, 0.913330, 2.256098, -1.219512, -0.243902, 33.141762
3435075, 0.017578, -0.011475, 0.913330, 2.134146, -1.219512, -0.060976, 33.094704
3436708, 0.010742, -0.015625, 0.921631, 2.195122, -1.036585, -0.121951, 33.047646
3438341, 0.023438, -0.018799, 0.923584, 2.317073, -1.097561, -0.121951, 33.094704
3439975, 0.021240, -0.016846, 0.912842, 2.317073, -0.975610, 0.060976, 33.141762
3441615, 0.021240, -0.015137, 0.907471, 2.195122, -1.219512, -0.121951, 33.188824
3443248, 0.016846, -0.019287, 0.920654, 2.012195, -1.097561, -0.121951, 33.235882
3444882, 0.017822, -0.016357, 0.918945, 2.256098, -1.219512, -0.182927, 33.094704
3446516, 0.020508, -0.018311, 0.912354, 2.195122, -1.219512, -0.243902, 32.953529
3448149, 0.022217, -0.018066, 0.914307, 2.195122, -1.097561, -0.121951, 33.000587
3449782, 0.023193, -0.018066, 0.913086, 2.256098, -0.975610, -0.182927, 33.141762
3451416, 0.022705, -0.012695, 0.912598, 2.256098, -1.097561, -0.243902, 33.094704
3453049, 0.016357, -0.013916, 0.909668, 2.134146, -1.219512, -0.182927, 33.047646
3454683, 0.029297, -0.017578, 0.906738, 2.195122, -1.219512, 0.060976, 33.188824
3456316, 0.017578, -0.017090, 0.908691, 2.317073, -1.097561, -0.243902, 33.141762
3457949, 0.025391, -0.017578, 0.918701, 2.195122, -0.975610, -0.426829, 33.094704
3459583, 0.017822, -0.010986, 0.919189, 2.256098, -1.158537, -0.182927, 33.188824
3461216, 0.016602, -0.017090, 0.917236, 2.256098, -1.097561, -0.182927, 33.094704
3462850, 0.018799, -0.016113, 0.910645, 2.134146, -1.036585, -0.243902, 33.094704
3464483, 0.014404, -0.019775, 0.912842, 2.195122, -1.097561, -0.243902, 33.141762
3466117, 0.018555, -0.012939, 0.914307, 2.195122, -1.158537, -0.304878, 33.188824
3467751, 0.018799, -0.013428, 0.912598, 2.134146, -0.975610, -0.243902, 33.047646
3469384, 0.024902, -0.014648, 0.915771, 2.134146, -0.975610, -0.243902, 33.094704
3471007, 0.021484, -0.018555, 0.910645, 2.195122, -0.914634, -0.243902, 33.141762
3472641, 0.015137, -0.011230, 0.903564, 2.378049, -1.097561, -0.243902, 33.000587
3474274, 0.013428, -0.012451, 0.910156, 2.317073, -1.219512, -0.365854, 33.141762
3475908, 0.011475, -0.016357, 0.914795, 2.317073, -1.158537, -0.365854, 33.188824
3477541, 0.014160, -0.015381, 0.909912, 2.195122, -1.158537, -0.182927, 33.047646
3479174, 0.014160, -0.016846, 0.913330, 2.012195, -1.097561, -0.182927, 33.188824
3480808, 0.020264, -0.017334, 0.916504, 2.195122, -1.036585, -0.243902, 33.047646
3482441, 0.018555, -0.013428, 0.914307, 2.012195, -1.036585, -0.243902, 33.094704
3484075, 0.021484, -0.017090, 0.919678, 2.317073, -0.975610, -0.304878, 33.047646
3485708, 0.021973, -0.017090, 0.909180, 2.134146, -1.097561, -0.243902, 33.094704
3487341, 0.023438, -0.015869, 0.910400, 2.256098, -1.280488, -0.182927, 33.047646
3488975, 0.022949, -0.010986, 0.913818, 2.073171, -0.975610, -0.182927, 33.094704
3490615, 0.022705, -0.017822, 0.907227, 2.256098, -1.097561, -0.182927, 33.094704
3492248, 0.020752, -0.013916, 0.912842, 2.195122, -1.158537, -0.304878, 33.094704
3493882, 0.020508, -0.010254, 0.917969, 2.073171, -1.036585, -0.182927, 33.188824
3495516, 0.015869, -0.017822, 0.916992, 2.195122, -1.158537, -0.060976, 33.141762
3497149, 0.021484, -0.018799, 0.926758, 2.317073, -1.036585, -0.182927, 33.188824
3498782, 0.022705, -0.014648, 0.911865, 2.073171, -1.036585, -0.243902, 33.141762
3500416, 0.020508, -0.016846, 0.916992, 2.195122, -0.975610, -0.304878, 33.188824
3502049, 0.019531, -0.014648, 0.911621, 2.195122, -1.219512, -0.182927, 33.141762
3503683, 0.014404, -0.016113, 0.907471, 2.134146, -1.097561, 0.000000, 33.094704
3505316, 0.018555, -0.017090, 0.917480, 2.134146, -1.158537, -0.182927, 33.141762
3506949, 0.017578, -0.016113, 0.916748, 2.012195, -1.158537, -0.243902, 33.094704
3508583, 0.020508, -0.020508, 0.924316, 2.134146, -0.975610, -0.487805, 33.141762
3510216, 0.016113, -0.015625, 0.912354, 2.256098, -1.158537, -0.426829, 33.094704
3511850, 0.016113, -0.011963, 0.915283, 2.134146, -1.158537, -0.182927, 33.047646
3513483, 0.015869, -0.016602, 0.917480, 2.073171, -0.975610, -0.060976, 33.094704
3515117, 0.015869, -0.018555, 0.910645, 2.134146, -0.975610, -0.243902, 33.141762
3516751, 0.022705, -0.013184, 0.912109, 2.134146, -1.036585, -0.182927, 33.094704
3518384, 0.023438, -0.015625, 0.914795, 2.134146, -1.158537, -0.304878, 33.188824
3520007, 0.020020, -0.017090, 0.918701, 2.256098, -1.158537, -0.243902, 33.141762
3521641, 0.007080, -0.014893, 0.903076, 2.256098, -1.158537, -0.182927, 33.094704
3523274, 0.015381, -0.017090, 0.911865, 2.134146, -0.914634, 0.000000, 33.094704
3524908, 0.023438, -0.019287, 0.915039, 2.134146, -1.036585, -0.121951, 33.094704
3526541, 0.013916, -0.020508, 0.911377, 2.256098, -1.036585, -0.060976, 33.141762
3528174, 0.020508, -0.015137, 0.907959, 2.073171, -1.036585, -0.182927, 33.094704
3529808, 0.024658, -0.011719, 0.917725, 2.195122, -0.914634, -0.243902, 33.047646
3531441, 0.020752, -0.014893, 0.911621, 2.256098, -0.975610, -0.182927, 33.188824
3533075, 0.018066, -0.014160, 0.922607, 2.073171, -0.914634, -0.304878, 33.047646
3534708, 0.020264, -0.010498, 0.915527, 2.073171, -1.036585, -0.365854, 33.094704
3536341, 0.018311, -0.017090, 0.913330, 2.134146, -0.914634, -0.121951, 33.047646
3537975, 0.014160, -0.018066, 0.916504, 2.012195, -1.158537, -0.182927, 33.094704
3539615, 0.016113, -0.014404, 0.904297, 2.134146, -1.402439, -0.487805, 33.141762
3541248, 0.020508, -0.015137, 0.916992, 2.073171, -1.097561, -0.243902, 33.000587
3542882, 0.017578, -0.017334, 0.921875, 2.073171, -1.036585, -0.182927, 33.141762
3544516, 0.019531, -0.019043, 0.911865, 2.317073, -1.280488, -0.243902, 33.094704
3546149, 0.021484, -0.021484, 0.914062, 2.134146, -1.036585, -0.304878, 33.141762
3547782, 0.012207, -0.017578, 0.913086, 2.134146, -0.975610, -0.243902, 33.141762
3549416, 0.016846, -0.015625, 0.910400, 2.195122, -1.097561, -0.121951, 33.188824
3551049, 0.017578, -0.020996, 0.916504, 2.256098, -1.158537, -0.060976, 33.047646
3552683, 0.023438, -0.012451, 0.909180, 2.073171, -0.914634, -0.182927, 33.188824
3554316, 0.015869, -0.012695, 0.912842, 2.317073, -0.914634, -0.182927, 33.094704
3555949, 0.020996, -0.011719, 0.907959, 2.073171, -0.975610, -0.182927, 33.094704
3557583, 0.020020, -0.018311, 0.922119, 2.317073, -1.036585, -0.121951, 33.141762
3559216, 0.019287, -0.016113, 0.923828, 2.439024, -1.158537, -0.243902, 33.188824
3560850, 0.022217, -0.017090, 0.914062, 2.134146, -1.097561, -0.243902, 33.141762
3562483, 0.020020, -0.014404, 0.912109, 2.073171, -1.036585, -0.304878, 33.188824
3564117, 0.018799, -0.015869, 0.918701, 2.317073, -1.097561, -0.182927, 33.141762
3565751, 0.019531, -0.017334, 0.905762, 2.073171, -0.975610, -0.182927, 33.094704
3567384, 0.017334, -0.016846, 0.919189, 2.073171, -1.097561, -0.182927, 33.141762
3569007, 0.016357, -0.013672, 0.926270, 2.134146, -1.097561, -0.182927, 33.094704
3570641, 0.018799, -0.015869, 0.906494, 2.256098, -0.914634, -0.182927, 33.047646
3572274, 0.013916, -0.019287, 0.913818, 2.134146, -1.158537, -0.304878, 33.094704
3573908, 0.020020, -0.015869, 0.916260, 2.134146, -1.097561, -0.121951, 33.141762
3575541, 0.024414, -0.011719, 0.920410, 2.195122, -1.036585, -0.304878, 33.000587
3577174, 0.020264, -0.017578, 0.914062, 2.195122, -1.341463, -0.304878, 33.141762
3578808, 0.017578, -0.012695, 0.920166, 2.073171, -1.097561, -0.304878, 33.047646
3580441, 0.015869, -0.020752, 0.913574, 2.317073, -1.280488, -0.182927, 33.188824
3582075, 0.018066, -0.020264, 0.903809, 2.195122, -0.975610, -0.121951, 33.141762
3583708, 0.024170, -0.015869, 0.920166, 2.134146, -0.853659, -0.182927, 33.188824
3585341, 0.023193, -0.013916, 0.916748, 2.134146, -1.280488, -0.243902, 33.188824
3586975, 0.020264, -0.017090, 0.911133, 2.134146, -1.280488, -0.243902, 33.188824
3588615, 0.024414, -0.019043, 0.916748, 2.195122, -1.097561, -0.060976, 33.047646
3590248, 0.021484, -0.013184, 0.918701, 2.073171, -0.914634, 0.060976, 33.188824
3591882, 0.016113, -0.013916, 0.906006, 2.256098, -0.975610, -0.243902, 33.141762
3593516, 0.021240, -0.012451, 0.924316, 2.134146, -1.036585, -0.182927, 33.094704
3595149, 0.017334, -0.016846, 0.917236, 2.195122, -1.158537, -0.243902, 33.141762
3596782, 0.021240, -0.021484, 0.915771, 2.012195, -1.158537, -0.182927, 33.094704
3598416, 0.022461, -0.014893, 0.914551, 2.378049, -1.402439, -0.243902, 33.141762
3600049, 0.015381, -0.018799, 0.917725, 2.195122, -1.158537, -0.304878, 33.094704
3601683, 0.014893, -0.017822, 0.916748, 2.256098, -1.036585, -0.121951, 33.141762
3603316, 0.021729, -0.015869, 0.913086, 2.317073, -0.975610, -0.243902, 33.188824
3604949, 0.020996, -0.013672, 0.915771, 2.134146, -0.975610, -0.243902, 33.235882
3606583, 0.017090, -0.016357, 0.906982, 2.073171, -0.975610, -0.243902, 33.141762
3608216, 0.016846, -0.013916, 0.908447, 2.256098, -1.036585, -0.426829, 33.094704
3609850, 0.015625, -0.012207, 0.915771, 2.134146, -0.975610, -0.365854, 33.141762
3611483, 0.011719, -0.018066, 0.919434, 2.073171, -0.975610, -0.182927, 33.094704
3613117, 0.019043, -0.017090, 0.917480, 2.256098, -1.097561, -0.121951, 33.235882
3614751, 0.018799, -0.016602, 0.916748, 2.073171, -1.097561, -0.121951, 33.094704
3616384, 0.015137, -0.018555, 0.913574, 1.951220, -1.097561, 0.060976, 33.141762
3618007, 0.024902, -0.012207, 0.916260, 2.073171, -1.036585, -0.060976, 33.188824
3619641, 0.019043, -0.011475, 0.916504, 2.073171, -1.036585, -0.182927, 33.141762
3621274, 0.024170, -0.021240, 0.914551, 2.195122, -0.914634, -0.182927, 33.188824
3622908, 0.020752, -0.015381, 0.912598, 2.073171, -0.975610, -0.243902, 33.047646
3624541, 0.018799, -0.014893, 0.908447, 2.195122, -1.036585, -0.121951, 33.188824
3626174, 0.023438, -0.010986, 0.920410, 2.134146, -0.975610, -0.121951, 33.047646
3627808, 0.020752, -0.018066, 0.919678, 2.134146, -0.914634, -0.182927, 33.188824
3629441, 0.018066, -0.014404, 0.917969, 2.256098, -1.036585, -0.304878, 33.047646
3631075, 0.018799, -0.011963, 0.916016, 2.195122, -1.097561, -0.121951, 33.188824
3632708, 0.020996, -0.015625, 0.919189, 2.012195, -1.036585, -0.182927, 33.235882
3634341, 0.018799, -0.016357, 0.918213, 2.134146, -1.097561, -0.121951, 33.188824
3635975, 0.023193, -0.016113, 0.917236, 2.195122, -1.219512, -0.182927, 33.235882
3637615, 0.014648, -0.020020, 0.921631, 2.134146, -0.792683, -0.182927, 33.047646
3639248, 0.020020, -0.014404, 0.919189, 2.073171, -1.097561, -0.304878, 33.188824
3640882, 0.021973, -0.016602, 0.924561, 2.317073, -1.158537, -0.243902, 33.047646
3642516, 0.020264, -0.015381, 0.912354, 2.317073, -1.097561, -0.243902, 33.094704
3644149, 0.017822, -0.017822, 0.911133, 2.134146, -1.158537, -0.121951, 33.141762
3645782, 0.022461, -0.010986, 0.911621, 2.134146, -1.036585, -0.243902, 33.094704
3647416, 0.022461, -0.011475, 0.912598, 2.073171, -0.853659, -0.304878, 33.141762
3649049, 0.016357, -0.018066, 0.913330, 2.134146, -1.097561, -0.121951, 33.188824
3650683, 0.022949, -0.014404, 0.909912, 2.012195, -1.280488, -0.182927, 33.141762
3652316, 0.023438, -0.013672, 0.911621, 2.256098, -1.097561, -0.121951, 33.094704
3653949, 0.018311, -0.006348, 0.914795, 2.256098, -1.158537, -0.060976, 33.141762
3655583, 0.017334, -0.013672, 0.918945, 2.317073, -1.158537, -0.182927, 33.094704
3657216, 0.016113, -0.015137, 0.910889, 1.951220, -0.975610, -0.182927, 33.141762
3658850, 0.018799, -0.014893, 0.914307, 2.195122, -1.036585, -0.365854, 33.188824
3660483, 0.017578, -0.013184, 0.918945, 2.195122, -0.975610, -0.182927, 33.047646
3662117, 0.017822, -0.014648, 0.921387, 2.256098, -1.097561, -0.182927, 33.188824
3663751, 0.021484, -0.017090, 0.922363, 2.134146, -1.219512, -0.182927, 33.141762
3665384, 0.027832, -0.016846, 0.916748, 2.195122, -1.219512, -0.182927, 33.094704
3667007, 0.023193, -0.014648, 0.909180, 2.134146, -1.158537, -0.304878, 33.188824
3668641, 0.018311, -0.009521, 0.910400, 2.195122, -1.158537, -0.121951, 33.141762
3670274, 0.020264, -0.014893, 0.920654, 2.256098, -1.280488, -0.182927, 33.094704
3671908, 0.019531, -0.016602, 0.914307, 2.195122, -1.036585, -0.121951, 33.141762
3673541, 0.019043, -0.019531, 0.909180, 2.134146, -1.341463, -0.182927, 33.094704
3675174, 0.022217, -0.015137, 0.899658, 2.195122, -1.219512, -0.121951, 33.141762
3676808, 0.020752, -0.015869, 0.920898, 2.134146, -1.036585, -0.121951, 33.188824
3678441, 0.019043, -0.007812, 0.916260, 2.073171, -1.097561, -0.121951, 33.141762
3680075, 0.021240, -0.011475, 0.924805, 2.256098, -1.280488, -0.426829, 33.094704
3681708, 0.023193, -0.013184, 0.915283, 2.378049, -1.036585, -0.182927, 33.047646
3683341, 0.017090, -0.016113, 0.918701, 2.317073, -1.036585, -0.243902, 33.094704
3684975, 0.019531, -0.016113, 0.908203, 2.317073, -1.158537, -0.121951, 33.141762
3686615, 0.022461, -0.016113, 0.923584, 2.256098, -1.036585, -0.304878, 33.094704
3688248, 0.022217, -0.018555, 0.923096, 2.134146, -0.914634, -0.182927, 33.141762
3689882, 0.020996, -0.017334, 0.908691, 2.256098, -0.853659, -0.304878, 33.094704
3691516, 0.021729, -0.015625, 0.917236, 2.073171, -1.158537, -0.182927, 33.047646
3693149, 0.015625, -0.017578, 0.915039, 2.134146, -0.914634, -0.304878, 33.094704
3694782, 0.022949, -0.020020, 0.915039, 2.256098, -1.219512, -0.182927, 33.188824
3696416, 0.022949, -0.020752, 0.921875, 2.073171, -1.036585, -0.304878, 33.094704
3698049, 0.020752, -0.015137, 0.910156, 2.073171, -1.158537, -0.060976, 33.094704
3699683, 0.020020, -0.024170, 0.909912, 2.073171, -1.036585, -0.121951, 33.141762
3701316, 0.019287, -0.013672, 0.920654, 2.317073, -1.036585, -0.121951, 33.094704
3702949, 0.013672, -0.012939, 0.913818, 2.134146, -0.975610, -0.243902, 33.141762
3704583, 0.023438, -0.012939, 0.921631, 2.134146, -1.097561, -0.182927, 33.188824
3706216, 0.021973, -0.017578, 0.914307, 2.073171, -1.036585, -0.304878, 33.141762
3707850, 0.023438, -0.014893, 0.912842, 2.378049, -1.219512, -0.060976, 33.094704
3709483, 0.017090, -0.014648, 0.905518, 2.134146, -0.914634, -0.243902, 33.047646
3711117, 0.020264, -0.020752, 0.911865, 2.012195, -0.975610, -0.060976, 33.188824
3712751, 0.023193, -0.017334, 0.920166, 2.073171, -1.097561, -0.304878, 33.141762
3714384, 0.024658, -0.015869, 0.915771, 2.439024, -1.280488, -0.426829, 33.094704
3716007, 0.021973, -0.009766, 0.915771, 2.195122, -1.097561, -0.060976, 33.141762
3717641, 0.020020, -0.013916, 0.921631, 2.195122, -1.036585, -0.060976, 33.094704
3719274, 0.024170, -0.016113, 0.909180, 2.195122, -1.219512, -0.243902, 33.141762
3720908, 0.026367, -0.013672, 0.916260, 2.317073, -1.158537, -0.365854, 33.188824
3722541, 0.015381, -0.017578, 0.912109, 2.256098, -1.097561, -0.182927, 33.141762
3724174, 0.022217, -0.016602, 0.911133, 2.134146, -1.341463, -0.243902, 33.094704
3725808, 0.020996, -0.017822, 0.917236, 2.317073, -1.036585, -0.121951, 33.094704
3727441, 0.022217, -0.013428, 0.919434, 2.378049, -0.975610, -0.121951, 33.094704
3729075, 0.017090, -0.013916, 0.920166, 2.134146, -1.097561, -0.182927, 33.188824
3730708, 0.017334, -0.018311, 0.911865, 2.256098, -0.975610, -0.060976, 33.141762
3732341, 0.023682, -0.018066, 0.915283, 2.378049, -1.097561, -0.243902, 33.188824
3733975, 0.022705, -0.013184, 0.907959, 2.012195, -1.219512, -0.182927, 33.141762
3735615, 0.015381, -0.017822, 0.911377, 2.134146, -1.036585, -0.060976, 33.094704
3737248, 0.017334, -0.018799, 0.906738, 2.073171, -1.158537, -0.243902, 33.141762
3738882, 0.018311, -0.017090, 0.907715, 2.134146, -0.975610, -0.243902, 33.094704
3740516, 0.015137, -0.016602, 0.908203, 2.195122, -1.036585, -0.121951, 33.141762
3742149, 0.016357, -0.017822, 0.915527, 2.134146, -1.036585, -0.304878, 33.094704
3743782, 0.019287, -0.013672, 0.917480, 2.195122, -1.097561, -0.182927, 33.141762
3745416, 0.024170, -0.013428, 0.919434, 2.256098, -1.097561, -0.243902, 33.188824
3747049, 0.015869, -0.013672, 0.914307, 2.195122, -1.036585, -0.182927, 33.047646
3748683, 0.019531, -0.015869, 0.914062, 2.134146, -1.158537, -0.121951, 33.094704
3750316, 0.020508, -0.013184, 0.909668, 2.195122, -0.975610, -0.182927, 33.141762
3751949, 0.020264, -0.018555, 0.916504, 2.195122, -0.914634, -0.243902, 33.188824
3753583, 0.019287, -0.012939, 0.918945, 2.195122, -1.097561, -0.121951, 33.094704
3755216, 0.021729, -0.015625, 0.920410, 2.134146, -0.975610, 0.060976, 33.141762
3756850, 0.022217, -0.017578, 0.914062, 2.256098, -0.853659, -0.243902, 33.094704
3758483, 0.021240, -0.017090, 0.918213, 2.317073, -1.097561, -0.365854, 33.188824
3760117, 0.016846, -0.011475, 0.915039, 2.317073, -1.158537, -0.182927, 33.094704
3761751, 0.017578, -0.022217, 0.910889, 2.317073, -0.975610, -0.182927, 33.047646
3763384, 0.016846, -0.017578, 0.910889, 2.195122, -1.097561, 0.000000, 33.094704
3765007, 0.019531, -0.013672, 0.910156, 2.195122, -1.097561, -0.365854, 32.953529
3766641, 0.015381, -0.012939, 0.916748, 2.317073, -0.853659, -0.182927, 33.188824
3768274, 0.018311, -0.013428, 0.919922, 2.378049, -1.158537, -0.121951, 33.141762
3769908, 0.017090, -0.023193, 0.918213, 2.073171, -1.219512, -0.060976, 33.094704
3771541, 0.017090, -0.017578, 0.918701, 2.195122, -1.097561, -0.243902, 33.047646
3773174, 0.024170, -0.025146, 0.917725, 2.317073, -1.158537, -0.304878, 33.094704
3774808, 0.019775, -0.019043, 0.912354, 2.012195, -1.158537, -0.182927, 33.141762
3776441, 0.025879, -0.018311, 0.915039, 2.012195, -0.914634, 0.000000, 33.094704
3778075, 0.018066, -0.015137, 0.916260, 2.195122, -0.975610, -0.365854, 33.047646
3779708, 0.018066, -0.015869, 0.912354, 2.012195, -1.341463, -0.182927, 33.094704
3781341, 0.020264, -0.020752, 0.913330, 2.134146, -0.975610, -0.182927, 33.047646
3782975, 0.015625, -0.019775, 0.917725, 2.073171, -1.036585, -0.121951, 33.094704
3784615, 0.014893, -0.014160, 0.917480, 2.134146, -1.158537, -0.243902, 33.188824
3786248, 0.017090, -0.014404, 0.910645, 2.256098, -1.097561, -0.304878, 33.141762
3787882, 0.015869, -0.017090, 0.907227, 2.317073, -1.158537, -0.243902, 33.094704
3789516, 0.028809, -0.010986, 0.910889, 2.134146, -1.158537, -0.243902, 33.188824
3791149, 0.020020, -0.014648, 0.908936, 2.195122, -1.158537, -0.304878, 33.188824
3792782, 0.018311, -0.015381, 0.916504, 2.256098, -1.280488, -0.243902, 33.047646
3794416, 0.017090, -0.016846, 0.916504, 2.134146, -1.219512, -0.304878, 33.094704
3796049, 0.019531, -0.017334, 0.914062, 2.134146, -1.219512, -0.060976, 33.235882
3797683, 0.021240, -0.023438, 0.911621, 2.134146, -1.097561, 0.000000, 33.094704
3799316, 0.018799, -0.020020, 0.912598, 2.378049, -1.158537, -0.121951, 33.047646
3800949, 0.016846, -0.020996, 0.915771, 2.134146, -1.158537, -0.182927, 33.188824
3802583, 0.020508, -0.013672, 0.917725, 2.073171, -1.097561, -0.060976, 33.141762
3804216, 0.023438, -0.011963, 0.920410, 1.951220, -0.853659, -0.182927, 33.188824
3805850, 0.022949, -0.011475, 0.917236, 2.195122, -0.975610, -0.365854, 33.141762
3807483, 0.021240, -0.016602, 0.919922, 2.195122, -1.097561, -0.121951, 33.188824
3809117, 0.019775, -0.018066, 0.916748, 2.256098, -1.158537, -0.121951, 33.141762
3810751, 0.022217, -0.014648, 0.921143, 2.073171, -0.853659, 0.000000, 33.188824
3812384, 0.025635, -0.010742, 0.917236, 2.012195, -1.097561, -0.182927, 33.094704
3814007, 0.018799, -0.020996, 0.912598, 2.195122, -1.036585, -0.243902, 33.141762
3815641, 0.018555, -0.015625, 0.909912, 2.134146, -1.219512, -0.304878, 33.188824
3817274, 0.018311, -0.016602, 0.910645, 2.073171, -1.341463, -0.243902, 33.047646
3818908, 0.022949, -0.012207, 0.913330, 2.073171, -0.975610, -0.060976, 33.094704
3820541, 0.020996, -0.016113, 0.918945, 2.012195, -0.975610, -0.304878, 33.094704
3822174, 0.020508, -0.017578, 0.911865, 2.073171, -1.097561, -0.304878, 33.094704
3823808, 0.020508, -0.020020, 0.914795, 2.195122, -1.097561, -0.121951, 33.141762
3825441, 0.020020, -0.022461, 0.921875, 2.195122, -1.158537, -0.365854, 33.094704
3827075, 0.024902, -0.016113, 0.913086, 2.256098, -0.975610, -0.182927, 33.047646
3828708, 0.022949, -0.016602, 0.912109, 1.951220, -0.975610, -0.548781, 33.094704
3830341, 0.024902, -0.012207, 0.916748, 2.073171, -0.975610, -0.304878, 33.235882
3831975, 0.022461, -0.016357, 0.908203, 2.134146, -1.036585, -0.304878, 33.188824
3833615, 0.022217, -0.013916, 0.917969, 2.134146, -0.914634, -0.243902, 33.141762
3835248, 0.023438, -0.015381, 0.920410, 2.317073, -1.158537, -0.426829, 33.188824
3836882, 0.024170, -0.013916, 0.913574, 2.378049, -1.158537, -0.182927, 33.141762
3838516, 0.020020, -0.020264, 0.912109, 2.134146, -1.097561, 0.121951, 33.094704
3840149, 0.020996, -0.011963, 0.912598, 2.256098, -1.036585, -0.182927, 33.047646
3841782, 0.019531, -0.016602, 0.910645, 2.134146, -0.975610, -0.121951, 33.141762
3843416, 0.019287, -0.017578, 0.917236, 2.134146, -1.036585, -0.365854, 33.094704
3845049, 0.025635, -0.011719, 0.915527, 2.073171, -0.914634, -0.304878, 33.141762
3846683, 0.025146, -0.010986, 0.924316, 2.195122, -1.097561, -0.060976, 33.094704
3848316, 0.020264, -0.016357, 0.916748, 2.256098, -1.280488, -0.121951, 33.141762
3849949, 0.017578, -0.016846, 0.923828, 2.256098, -1.097561, -0.243902, 33.188824
3851583, 0.025635, -0.018555, 0.921143, 2.195122, -1.036585, -0.243902, 33.141762
3853216, 0.022461, -0.010742, 0.919922, 2.134146, -1.280488, -0.243902, 33.188824
3854850, 0.021240, -0.015137, 0.918701, 2.073171, -1.036585, -0.304878, 33.141762
3856483, 0.021484, -0.018799, 0.907227, 2.256098, -0.975610, -0.487805, 33.094704
3858117, 0.012695, -0.012207, 0.910889, 2.317073, -0.914634, -0.121951, 33.047646
3859751, 0.014648, -0.019043, 0.907959, 2.134146, -1.158537, -0.365854, 33.094704
3861384, 0.019775, -0.014893, 0.906982, 2.073171, -1.219512, -0.426829, 33.235882
3863007, 0.021973, -0.019043, 0.915283, 2.073171, -1.036585, -0.060976, 33.188824
3864641, 0.014160, -0.015381, 0.916748, 2.317073, -0.914634, -0.182927, 33.141762
3866274, 0.020264, -0.012695, 0.910400, 2.073171, -1.158537, -0.182927, 33.094704
3867908, 0.013672, -0.012207, 0.912598, 2.256098, -1.280488, -0.182927, 33.235882
3869541, 0.019043, -0.015869, 0.904541, 2.195122, -1.158537, -0.243902, 33.188824
3871174, 0.020020, -0.016602, 0.914062, 2.134146, -1.158537, -0.304878, 33.141762
3872808, 0.020020, -0.018555, 0.909424, 2.073171, -0.975610, -0.121951, 33.235882
3874441, 0.018799, -0.015625, 0.909668, 2.134146, -1.097561, -0.121951, 33.094704
3876075, 0.020508, -0.014893, 0.909668, 2.317073, -1.097561, -0.243902, 33.141762
3877708, 0.023926, -0.017090, 0.908203, 2.256098, -1.219512, -0.304878, 33.188824
3879341, 0.019287, -0.018066, 0.913574, 2.134146, -0.975610, -0.304878, 33.141762
3880975, 0.019043, -0.009521, 0.917480, 2.134146, -1.097561, -0.121951, 33.000587
3882615, 0.025146, -0.014648, 0.914795, 2.195122, -1.158537, -0.243902, 33.141762
3884248, 0.018066, -0.012939, 0.908691, 2.134146, -1.036585, -0.243902, 33.094704
3885882, 0.021484, -0.011963, 0.910400, 2.256098, -1.097561, -0.243902, 33.141762
3887516, 0.019287, -0.015137, 0.912354, 2.256098, -1.097561, -0.304878, 33.094704
3889149, 0.019775, -0.015137, 0.913330, 1.951220, -1.097561, -0.121951, 33.047646
3890782, 0.017090, -0.012939, 0.909424, 2.256098, -1.219512, -0.182927, 33.094704
3892416, 0.019775, -0.015869, 0.912842, 2.195122, -1.097561, -0.304878, 33.141762
3894049, 0.026123, -0.015625, 0.915283, 2.134146, -1.158537, -0.365854, 33.094704
3895683, 0.023193, -0.015381, 0.911133, 2.134146, -1.219512, -0.121951, 33.141762
3897316, 0.020020, -0.015625, 0.912842, 2.256098, -1.097561, -0.243902, 33.000587
3898949, 0.020020, -0.013916, 0.908447, 2.134146, -1.036585, -0.365854, 33.047646
3900583, 0.024658, -0.015381, 0.902832, 2.317073, -1.158537, -0.060976, 33.094704
3902216, 0.020752, -0.015137, 0.915527, 2.134146, -0.914634, -0.243902, 33.094704
3903850, 0.022461, -0.014893, 0.906006, 2.134146, -1.219512, -0.304878, 33.047646
3905483, 0.017090, -0.018799, 0.918701, 2.073171, -1.219512, -0.304878, 33.094704
3907117, 0.022217, -0.016602, 0.920410, 2.256098, -1.097561, -0.365854, 33.141762
3908751, 0.016357, -0.016357, 0.912354, 2.256098, -0.914634, -0.365854, 33.094704
3910384, 0.022461, -0.012451, 0.915771, 2.012195, -1.158537, -0.304878, 33.141762
3912007, 0.021729, -0.016357, 0.910156, 2.256098, -1.219512, -0.182927, 33.094704
3913641, 0.021729, -0.011719, 0.912109, 2.317073, -0.853659, -0.121951, 33.141762
3915274, 0.020508, -0.014160, 0.912354, 2.195122, -1.158537, -0.182927, 33.094704
3916908, 0.023438, -0.015381, 0.907959, 2.317073, -1.219512, 0.060976, 33.141762
3918541, 0.018311, -0.015625, 0.908691, 2.073171, -0.914634, -0.060976, 33.094704
3920174, 0.016846, -0.017822, 0.919434, 2.256098, -1.097561, -0.304878, 33.047646
3921808, 0.018799, -0.018555, 0.904785, 2.195122, -1.280488, -0.121951, 33.188824
3923441, 0.018311, -0.016846, 0.913574, 2.012195, -1.097561, -0.060976, 33.141762
3925075, 0.018066, -0.013428, 0.912598, 2.256098, -1.158537, -0.365854, 33.094704
3926708, 0.015625, -0.017090, 0.914551, 2.256098, -1.280488, -0.243902, 33.141762
3928341, 0.018311, -0.017334, 0.904541, 2.317073, -0.975610, -0.365854, 33.094704
3929975, 0.015869, -0.016602, 0.916016, 2.012195, -0.853659, -0.487805, 33.047646
3931615, 0.018311, -0.018066, 0.915771, 2.073171, -1.036585, -0.121951, 33.094704
3933248, 0.020264, -0.018066, 0.924805, 2.256098, -1.341463, -0.182927, 33.000587
3934882, 0.020020, -0.015869, 0.916504, 2.195122, -0.975610, -0.365854, 33.141762
3936516, 0.024414, -0.018066, 0.915283, 2.012195, -0.914634, 0.000000, 33.094704
3938149, 0.019531, -0.011475, 0.918701, 2.134146, -0.792683, -0.121951, 33.141762
3939782, 0.021729, -0.018311, 0.916260, 2.195122, -1.036585, -0.243902, 33.094704
3941416, 0.016602, -0.013428, 0.913818, 2.073171, -1.097561, -0.182927, 33.141762
3943049, 0.014648, -0.014160, 0.914062, 2.073171, -1.280488, -0.182927, 33.188824
3944683, 0.020752, -0.018799, 0.913818, 2.195122, -1.097561, -0.121951, 33.141762
3946316, 0.013184, -0.018555, 0.928711, 2.256098, -1.219512, -0.121951, 33.188824
3947949, 0.017578, -0.015625, 0.917969, 2.256098, -1.158537, -0.182927, 33.141762
3949583, 0.013672, -0.017822, 0.917236, 2.073171, -1.097561, -0.182927, 33.094704
3951216, 0.018799, -0.017578, 0.915527, 2.134146, -1.036585, -0.304878, 33.141762
3952850, 0.016113, -0.017822, 0.909180, 2.134146, -1.158537, -0.182927, 33.282940
3954483, 0.013916, -0.015625, 0.915527, 2.134146, -1.036585, -0.121951, 33.047646
3956117, 0.019775, -0.017822, 0.906982, 2.195122, -0.975610, -0.182927, 33.188824
3957751, 0.020020, -0.017090, 0.919678, 2.134146, -1.097561, -0.182927, 33.188824
3959384, 0.023438, -0.020752, 0.910889, 2.134146, -1.097561, -0.426829, 33.141762
3961007, 0.026611, -0.017822, 0.923828, 2.012195, -1.097561, -0.243902, 33.188824
3962641, 0.024414, -0.016113, 0.918213, 2.134146, -1.158537, -0.060976, 33.094704
3964274, 0.018799, -0.016846, 0.904785, 2.378049, -1.097561, -0.243902, 33.188824
3965908, 0.014893, -0.020020, 0.912109, 2.256098, -1.097561, -0.182927, 33.141762
3967541, 0.018066, -0.017334, 0.915527, 2.256098, -1.097561, -0.182927, 33.188824
3969174, 0.021484, -0.014893, 0.914307, 2.134146, -1.219512, -0.243902, 33.141762
3970808, 0.021729, -0.014404, 0.916748, 2.012195, -1.097561, -0.243902, 33.094704
3972441, 0.022217, -0.017090, 0.915283, 2.195122, -1.158537, -0.243902, 33.141762
3974075, 0.020508, -0.018799, 0.913574, 2.195122, -1.097561, -0.304878, 33.188824
3975708, 0.018311, -0.015869, 0.907471, 2.134146, -1.158537, -0.182927, 33.141762
3977341, 0.017090, -0.013916, 0.910156, 2.317073, -1.158537, -0.182927, 33.094704
3978975, 0.013428, -0.015381, 0.920410, 2.134146, -1.097561, -0.182927, 33.141762
3980615, 0.013184, -0.016846, 0.914062, 1.951220, -1.158537, -0.243902, 33.094704
3982248, 0.020996, -0.012451, 0.910645, 2.012195, -1.097561, -0.060976, 33.141762
3983882, 0.020508, -0.014648, 0.909424, 2.134146, -1.097561, -0.121951, 33.094704
3985516, 0.020264, -0.012695, 0.925781, 2.134146, -1.158537, -0.182927, 33.141762
3987149, 0.021973, -0.018555, 0.924316, 2.256098, -1.036585, -0.304878, 33.094704
3988782, 0.018799, -0.019043, 0.920654, 2.378049, -1.097561, -0.304878, 33.094704
3990416, 0.019287, -0.017578, 0.909668, 2.195122, -1.036585, -0.304878, 33.141762
3992049, 0.021973, -0.014648, 0.916504, 2.256098, -1.097561, -0.304878, 33.094704
3993683, 0.020020, -0.017090, 0.916748, 2.256098, -0.975610, -0.304878, 33.094704
3995316, 0.016113, -0.018555, 0.918701, 2.073171, -1.158537, -0.365854, 33.094704
3996949, 0.014893, -0.019287, 0.911621, 2.195122, -0.914634, -0.304878, 33.141762
3998583, 0.012939, -0.015869, 0.922119, 2.134146, -1.097561, -0.182927, 33.000587
4000216, 0.024414, -0.018311, 0.919678, 2.256098, -1.158537, -0.304878, 33.141762
4001850, 0.020508, -0.014648, 0.916504, 2.256098, -1.219512, -0.121951, 33.094704
4003483, 0.015869, -0.014160, 0.912354, 2.256098, -1.219512, -0.304878, 33.141762
4005117, 0.020996, -0.015381, 0.916992, 2.134146, -1.097561, -0.182927, 33.000587
4006751, 0.022217, -0.013184, 0.919434, 2.012195, -1.219512, -0.304878, 33.047646
4008384, 0.020020, -0.016357, 0.918945, 2.073171, -1.219512, -0.365854, 33.188824
4010007, 0.018311, -0.015869, 0.926270, 2.195122, -1.402439, -0.243902, 33.047646
4011641, 0.021484, -0.020264, 0.920898, 2.195122, -1.158537, -0.243902, 33.094704
4013274, 0.019287, -0.016602, 0.914062, 2.134146, -1.341463, -0.182927, 33.047646
4014908, 0.024170, -0.018311, 0.924316, 2.256098, -1.158537, -0.243902, 33.094704
4016541, 0.018311, -0.014404, 0.923340, 2.256098, -1.219512, -0.060976, 33.141762
4018174, 0.024902, -0.011230, 0.917480, 2.317073, -0.975610, 0.060976, 33.094704
4019808, 0.025635, -0.014160, 0.916748, 2.134146, -1.097561, -0.060976, 33.094704
4021441, 0.022217, -0.018555, 0.909424, 2.073171, -1.097561, -0.121951, 33.141762
4023075, 0.018555, -0.014404, 0.908203, 2.195122, -1.158537, -0.121951, 33.094704
4024708, 0.021240, -0.017090, 0.917969, 2.317073, -0.914634, -0.304878, 33.094704
4026341, 0.021729, -0.017578, 0.910156, 2.195122, -0.914634, -0.304878, 33.094704
4027975, 0.020752, -0.020508, 0.910400, 2.195122, -1.097561, -0.182927, 33.047646
4029615, 0.019531, -0.015137, 0.913818, 2.256098, -1.158537, -0.182927, 33.188824
4031248, 0.022461, -0.011963, 0.909668, 2.195122, -1.158537, -0.243902, 33.141762
4032882, 0.021240, -0.013428, 0.918213, 2.073171, -1.158537, -0.365854, 33.000587
4034516, 0.017090, -0.012207, 0.918213, 2.012195, -0.975610, -0.243902, 33.141762
4036149, 0.020508, -0.020020, 0.915527, 2.134146, -0.975610, -0.121951, 33.094704
4037782, 0.022217, -0.014160, 0.914551, 2.134146, -1.158537, -0.182927, 33.141762
4039416, 0.014160, -0.015381, 0.916504, 2.256098, -1.341463, -0.121951, 33.094704
4041049, 0.023438, -0.020020, 0.916016, 2.134146, -1.097561, -0.182927, 33.235882
4042683, 0.020508, -0.016357, 0.921631, 2.012195, -0.792683, -0.060976, 33.094704
4044316, 0.015137, -0.020264, 0.914795, 2.012195, -1.097561, -0.182927, 33.047646
4045949, 0.018311, -0.010010, 0.922119, 2.073171, -0.914634, -0.182927, 33.188824
4047583, 0.023193, -0.018555, 0.909668, 2.317073, -0.975610, -0.121951, 33.188824
4049216, 0.019043, -0.013672, 0.910645, 2.073171, -0.975610, -0.182927, 33.141762
4050850, 0.018799, -0.014404, 0.914795, 2.073171, -0.975610, -0.121951, 33.094704
4052483, 0.020752, -0.017578, 0.911865, 2.134146, -1.036585, -0.243902, 33.141762
4054117, 0.020996, -0.015869, 0.922852, 2.134146, -1.097561, -0.243902, 33.188824
4055751, 0.016113, -0.019287, 0.910400, 2.073171, -1.036585, -0.182927, 33.094704
4057384, 0.014648, -0.014648, 0.904541, 2.195122, -1.036585, 0.000000, 33.094704
4059007, 0.021729, -0.011230, 0.906738, 2.134146, -1.097561, -0.243902, 33.047646
4060641, 0.020996, -0.012939, 0.911133, 2.256098, -1.036585, -0.304878, 33.094704
4062274, 0.022217, -0.022949, 0.920410, 2.134146, -1.219512, -0.182927, 33.141762
4063908, 0.024658, -0.020508, 0.915771, 2.256098, -1.036585, -0.182927, 33.094704
4065541, 0.021484, -0.013184, 0.915039, 2.195122, -1.036585, -0.304878, 33.047646
4067174, 0.021729, -0.018799, 0.917969, 2.195122, -1.036585, -0.121951, 33.094704
4068808, 0.019043, -0.017334, 0.914551, 2.195122, -1.219512, -0.365854, 33.141762
4070441, 0.020996, -0.017822, 0.915771, 2.134146, -1.219512, -0.121951, 33.188824
4072075, 0.022217, -0.017334, 0.921875, 2.134146, -1.036585, -0.243902, 33.047646
4073708, 0.019775, -0.017334, 0.917969, 2.134146, -0.914634, -0.304878, 33.094704
4075341, 0.021973, -0.021973, 0.921631, 2.073171, -1.036585, -0.182927, 33.141762
4076975, 0.017822, -0.013672, 0.908447, 2.195122, -0.975610, -0.182927, 33.094704
4078615, 0.016846, -0.014893, 0.907959, 2.012195, -1.036585, -0.243902, 33.188824
4080248, 0.024170, -0.012939, 0.906494, 2.134146, -1.097561, -0.304878, 33.141762
4081882, 0.018799, -0.021973, 0.911133, 2.012195, -1.097561, -0.243902, 33.094704
4083516, 0.017822, -0.022461, 0.910889, 2.012195, -1.219512, -0.182927, 33.047646
4085149, 0.020996, -0.019775, 0.920898, 2.134146, -1.097561, -0.182927, 33.094704
4086782, 0.022461, -0.021240, 0.916992, 2.073171, -1.158537, -0.182927, 33.141762
4088416, 0.016846, -0.019531, 0.915039, 2.073171, -1.219512, -0.121951, 33.094704
4090049, 0.019287, -0.023682, 0.918701, 2.073171, -1.158537, -0.060976, 33.141762
4091683, 0.020020, -0.016357, 0.913330, 2.195122, -1.097561, -0.304878, 33.094704
4093316, 0.025391, -0.010254, 0.910156, 2.195122, -0.975610, -0.121951, 33.047646
4094949, 0.020264, -0.016602, 0.917969, 2.073171, -0.914634, -0.182927, 33.188824
4096583, 0.014404, -0.016602, 0.920898, 2.134146, -0.914634, -0.365854, 33.141762
4098216, 0.018555, -0.022461, 0.915283, 2.195122, -1.097561, 0.060976, 33.188824
4099850, 0.023926, -0.010742, 0.913086, 2.073171, -1.097561, -0.243902, 33.141762
4101483, 0.023438, -0.014648, 0.913574, 2.134146, -0.975610, -0.182927, 33.094704
4103117, 0.023438, -0.019287, 0.917236, 2.134146, -1.341463, -0.243902, 33.141762
4104751, 0.023926, -0.018555, 0.913818, 2.073171, -1.158537, -0.182927, 33.094704
4106384, 0.020020, -0.015137, 0.922119, 2.256098, -1.036585, -0.060976, 33.188824
4108007, 0.023193, -0.014648, 0.911621, 2.378049, -1.158537, -0.365854, 33.141762
4109641, 0.027100, -0.020752, 0.910889, 2.073171, -1.097561, -0.487805, 33.094704
4111274, 0.023682, -0.022461, 0.909668, 2.195122, -1.097561, -0.182927, 33.141762
4112908, 0.019287, -0.019775, 0.910400, 2.256098, -0.975610, -0.243902, 33.094704
4114541, 0.020752, -0.017334, 0.910400, 2.134146, -1.158537, -0.365854, 33.141762
4116174, 0.013916, -0.020020, 0.905518, 2.134146, -1.036585, -0.365854, 33.000587
4117808, 0.016113, -0.016113, 0.915283, 2.317073, -1.158537, -0.304878, 33.047646
4119441, 0.017334, -0.018799, 0.923096, 2.195122, -0.975610, -0.182927, 33.094704
4121075, 0.019043, -0.017334, 0.927734, 2.012195, -1.219512, -0.243902, 33.047646
4122708, 0.018555, -0.018555, 0.920898, 2.134146, -1.097561, -0.182927, 33.094704
4124341, 0.014404, -0.015137, 0.913574, 2.256098, -0.914634, -0.243902, 33.141762
4125975, 0.018555, -0.023193, 0.916260, 2.134146, -1.097561, -0.121951, 33.188824
4127615, 0.025879, -0.017578, 0.918945, 2.256098, -1.219512, -0.304878, 33.141762
4129248, 0.013672, -0.018066, 0.914551, 2.195122, -1.158537, -0.243902, 33.094704
4130882, 0.023438, -0.017334, 0.913330, 2.317073, -1.158537, -0.243902, 33.141762
4132516, 0.021973, -0.016846, 0.916260, 2.134146, -1.158537, -0.121951, 33.094704
4134149, 0.019043, -0.012451, 0.909912, 2.073171, -1.036585, -0.121951, 33.047646
4135782, 0.016602, -0.015137, 0.911377, 2.256098, -1.280488, -0.121951, 33.188824
4137416, 0.017578, -0.021240, 0.919189, 2.012195, -1.219512, -0.182927, 33.188824
4139049, 0.018555, -0.020508, 0.910645, 2.317073, -1.036585, -0.304878, 33.047646
4140683, 0.016357, -0.023193, 0.919922, 2.378049, -1.036585, -0.243902, 33.188824
4142316, 0.026855, -0.012207, 0.914551, 2.134146, -1.097561, -0.243902, 33.047646
4143949, 0.022461, -0.018066, 0.911865, 2.073171, -1.097561, -0.121951, 33.094704
4145583, 0.021973, -0.012939, 0.918213, 2.073171, -0.914634, -0.243902, 33.047646
4147216, 0.017822, -0.014893, 0.913818, 2.073171, -1.036585, -0.121951, 33.094704
4148850, 0.010986, -0.014404, 0.906738, 2.195122, -1.097561, -0.121951, 33.141762
4150483, 0.010254, -0.015869, 0.910645, 2.256098, -1.219512, -0.060976, 33.094704
4152117, 0.025391, -0.017090, 0.916504, 2.134146, -1.158537, -0.182927, 33.235882
4153751, 0.024414, -0.018555, 0.917236, 2.195122, -1.097561, -0.121951, 33.094704
4155384, 0.018311, -0.012207, 0.913574, 2.317073, -1.158537, -0.060976, 33.141762
4157007, 0.031494, -0.017822, 0.913330, 2.195122, -1.036585, 0.000000, 33.094704
4158641, 0.021729, -0.018799, 0.911377, 2.134146, -0.914634, -0.121951, 33.235882
4160274, 0.015869, -0.014648, 0.915283, 2.317073, -0.914634, -0.182927, 33.094704
4161908, 0.020996, -0.014893, 0.921875, 2.134146, -0.975610, -0.365854, 33.141762
4163541, 0.023438, -0.020020, 0.919189, 2.012195, -1.036585, -0.182927, 33.094704
4165174, 0.021240, -0.019043, 0.910645, 2.256098, -1.280488, -0.243902, 33.047646
4166808, 0.023926, -0.017090, 0.907959, 2.195122, -1.036585, -0.182927, 33.094704
4168441, 0.014404, -0.016357, 0.913574, 2.073171, -0.975610, -0.060976, 33.094704
4170075, 0.019043, -0.013672, 0.915527, 2.073171, -0.975610, -0.182927, 33.047646
4171708, 0.016113, -0.023926, 0.924561, 2.195122, -1.036585, -0.365854, 33.188824
4173341, 0.022949, -0.015869, 0.919434, 2.195122, -0.914634, -0.365854, 33.141762
4174975, 0.026855, -0.014893, 0.925293, 2.134146, -1.158537, -0.304878, 33.094704
4176615, 0.023438, -0.020752, 0.918457, 2.012195, -1.036585, -0.243902, 33.141762
4178248, 0.026367, -0.019287, 0.920410, 2.195122, -1.036585, -0.182927, 33.188824
4179882, 0.020508, -0.019043, 0.910889, 2.256098, -1.036585, -0.182927, 33.141762
4181516, 0.018311, -0.019775, 0.914795, 2.195122, -0.914634, -0.304878, 33.188824
4183149, 0.020752, -0.016357, 0.909668, 2.195122, -1.036585, -0.304878, 33.141762
4184782, 0.017090, -0.018799, 0.919189, 2.195122, -1.158537, -0.304878, 33.188824
4186416, 0.024902, -0.014648, 0.911621, 2.195122, -1.097561, -0.243902, 33.141762
4188049, 0.016846, -0.010986, 0.914307, 2.195122, -1.097561, -0.182927, 33.188824
4189683, 0.016357, -0.019043, 0.924072, 2.012195, -0.975610, -0.365854, 33.141762
4191316, 0.016846, -0.016846, 0.913330, 2.012195, -0.914634, -0.365854, 33.188824
4192949, 0.018555, -0.018555, 0.912354, 2.195122, -1.097561, -0.182927, 33.094704
4194583, 0.016357, -0.020264, 0.909668, 2.134146, -1.036585, -0.243902, 33.141762
4196216, 0.019531, -0.016113, 0.913330, 2.134146, -1.158537, -0.060976, 33.094704
4197850, 0.023438, -0.014648, 0.915283, 2.012195, -1.158537, -0.060976, 33.188824
4199483, 0.017822, -0.016357, 0.925049, 2.073171, -0.853659, 0.000000, 33.094704
4201117, 0.019287, -0.020996, 0.921631, 2.134146, -1.097561, -0.121951, 33.047646
4202751, 0.015137, -0.017334, 0.924561, 2.317073, -1.158537, -0.243902, 33.094704
4204384, 0.018066, -0.020752, 0.918701, 2.134146, -1.158537, -0.121951, 33.141762
4206007, 0.020508, -0.022217, 0.914795, 2.256098, -1.158537, -0.182927, 33.094704
4207641, 0.020264, -0.015625, 0.921875, 2.073171, -1.158537, -0.304878, 33.047646
4209274, 0.025635, -0.015381, 0.916016, 2.134146, -1.158537, -0.121951, 33.188824
4210908, 0.020020, -0.016357, 0.912598, 2.195122, -1.280488, -0.304878, 33.141762
4212541, 0.014404, -0.013916, 0.913818, 2.256098, -1.158537, -0.304878, 33.188824
4214174, 0.016846, -0.012939, 0.922607, 2.256098, -1.036585, -0.182927, 33.141762
4215808, 0.017090, -0.012451, 0.908936, 2.256098, -1.036585, -0.182927, 33.188824
4217441, 0.021729, -0.012939, 0.915039, 2.134146, -1.036585, -0.182927, 33.047646
4219075, 0.019775, -0.020752, 0.916260, 2.439024, -1.158537, -0.304878, 33.094704
4220708, 0.023682, -0.018555, 0.909668, 2.134146, -1.280488, -0.304878, 33.141762
4222341, 0.022217, -0.019531, 0.918701, 2.073171, -1.158537, -0.182927, 33.188824
4223975, 0.015381, -0.015625, 0.917969, 2.134146, -1.097561, -0.243902, 33.141762
4225615, 0.022217, -0.017090, 0.915771, 2.500000, -1.280488, -0.243902, 33.141762
4227248, 0.026123, -0.019287, 0.917725, 2.256098, -1.219512, -0.121951, 33.094704
4228882, 0.027832, -0.015625, 0.914307, 2.134146, -1.036585, -0.121951, 33.094704
4230516, 0.022217, -0.016602, 0.916992, 2.134146, -0.975610, -0.182927, 33.188824
4232149, 0.028564, -0.018311, 0.912842, 2.134146, -1.097561, -0.121951, 33.141762
4233782, 0.022217, -0.018066, 0.915039, 2.195122, -1.036585, -0.060976, 33.094704
4235416, 0.023193, -0.016602, 0.907715, 2.256098, -1.097561, -0.243902, 33.141762
4237049, 0.016846, -0.016357, 0.920410, 2.073171, -1.219512, -0.121951, 33.094704
4238683, 0.019775, -0.016846, 0.918945, 2.134146, -1.036585, -0.182927, 33.047646
4240316, 0.017334, -0.015869, 0.909180, 2.195122, -0.975610, -0.060976, 33.000587
4241949, 0.019043, -0.019775, 0.915039, 2.256098, -1.219512, -0.243902, 33.141762
4243583, 0.020996, -0.018799, 0.918945, 2.134146, -0.975610, -0.243902, 33.188824
4245216, 0.019043, -0.015869, 0.921875, 2.012195, -1.097561, -0.182927, 33.047646
4246850, 0.019775, -0.012695, 0.920410, 2.195122, -1.097561, -0.060976, 33.188824
4248483, 0.017090, -0.019287, 0.912354, 2.195122, -1.158537, -0.121951, 33.235882
4250117, 0.018311, -0.019531, 0.916748, 2.134146, -1.158537, -0.304878, 33.094704
4251751, 0.017578, -0.015869, 0.923828, 2.439024, -1.158537, -0.304878, 33.094704
4253384, 0.018799, -0.015381, 0.915039, 2.134146, -0.975610, -0.365854, 33.047646
4255007, 0.020020, -0.022217, 0.915039, 2.012195, -1.097561, -0.304878, 33.000587
4256641, 0.018066, -0.015137, 0.916016, 2.134146, -1.158537, -0.243902, 33.141762
4258274, 0.024170, -0.022217, 0.914795, 2.195122, -1.097561, -0.426829, 33.094704
4259908, 0.015137, -0.021240, 0.913574, 2.317073, -1.219512, -0.426829, 33.000587
4261541, 0.014893, -0.013184, 0.916260, 2.134146, -1.036585, -0.365854, 33.094704
4263174, 0.020020, -0.017822, 0.907715, 2.195122, -0.853659, -0.182927, 33.141762
4264808, 0.018799, -0.016357, 0.919678, 2.317073, -1.036585, -0.060976, 33.094704
4266441, 0.017334, -0.016113, 0.921143, 2.195122, -1.158537, -0.304878, 33.141762
4268075, 0.015381, -0.019531, 0.917236, 2.195122, -0.914634, -0.243902, 33.188824
4269708, 0.010498, -0.012695, 0.919189, 2.073171, -1.219512, -0.304878, 33.047646
4271341, 0.023926, -0.017334, 0.916504, 2.073171, -1.158537, -0.121951, 33.094704
4272975, 0.021973, -0.015381, 0.916016, 2.317073, -0.975610, -0.426829, 33.047646
4274615, 0.017822, -0.013916, 0.903320, 2.134146, -1.219512, -0.243902, 33.094704
4276248, 0.021484, -0.016357, 0.915283, 2.256098, -1.158537, 0.121951, 33.141762
4277882, 0.012695, -0.016602, 0.913330, 2.195122, -1.036585, -0.182927, 33.094704
4279516, 0.017578, -0.014404, 0.917480, 2.256098, -0.914634, -0.426829, 33.047646
4281149, 0.018799, -0.018799, 0.916016, 2.256098, -1.219512, -0.365854, 33.047646
4282782, 0.017822, -0.020020, 0.920654, 2.134146, -1.158537, -0.182927, 33.188824
4284416, 0.019775, -0.014893, 0.910400, 2.317073, -1.097561, -0.304878, 33.047646
4286049, 0.018066, -0.014648, 0.921631, 1.951220, -0.914634, -0.304878, 33.094704
4287683, 0.025879, -0.014404, 0.918945, 2.012195, -0.792683, -0.182927, 33.141762
4289316, 0.026367, -0.013916, 0.913818, 2.317073, -1.036585, -0.121951, 33.094704
4290949, 0.022949, -0.013916, 0.906738, 2.134146, -1.036585, -0.121951, 33.094704
4292583, 0.022217, -0.016357, 0.910400, 2.256098, -1.158537, -0.243902, 33.188824
4294216, 0.015625, -0.013184, 0.906982, 2.073171, -1.036585, -0.121951, 33.047646
4295850, 0.020020, -0.012939, 0.913574, 1.951220, -1.097561, -0.365854, 33.094704
4297483, 0.014160, -0.015137, 0.911621, 2.134146, -1.097561, -0.243902, 33.141762
4299117, 0.018799, -0.015625, 0.919434, 2.256098, -1.036585, -0.304878, 33.094704
4300751, 0.019287, -0.015137, 0.914795, 2.195122, -1.036585, -0.121951, 33.047646
4302384, 0.020020, -0.022705, 0.916504, 2.134146, -1.036585, -0.365854, 33.000587
4304007, 0.024658, -0.012451, 0.917236, 2.134146, -1.097561, -0.182927, 33.141762
4305641, 0.015381, -0.012451, 0.909180, 2.195122, -0.975610, -0.182927, 33.188824
4307274, 0.012207, -0.014160, 0.916016, 2.378049, -1.158537, -0.182927, 33.141762
4308908, 0.016113, -0.014648, 0.909912, 2.073171, -1.219512, -0.121951, 33.094704
4310541, 0.017578, -0.017822, 0.904053, 2.073171, -1.097561, -0.304878, 33.047646
4312174, 0.015381, -0.015381, 0.911377, 2.073171, -1.158537, -0.121951, 33.094704
4313808, 0.012695, -0.017822, 0.916992, 2.256098, -1.097561, -0.243902, 33.188824
4315441, 0.017090, -0.016113, 0.920166, 2.073171, -0.975610, -0.182927, 33.047646
4317075, 0.012451, -0.017334, 0.909668, 2.134146, -0.975610, -0.060976, 33.094704
4318708, 0.020020, -0.012451, 0.907715, 2.256098, -1.097561, -0.182927, 33.141762
4320341, 0.021973, -0.016357, 0.910400, 2.134146, -1.219512, -0.243902, 33.094704
4321975, 0.020752, -0.016357, 0.917480, 2.134146, -1.036585, -0.365854, 33.094704
4323615, 0.017822, -0.020508, 0.917725, 2.134146, -1.097561, -0.243902, 33.188824
4325248, 0.019775, -0.002930, 0.920898, 2.195122, -1.036585, -0.182927, 33.141762
4326882, 0.020264, -0.010498, 0.909424, 2.317073, -0.975610, -0.243902, 33.188824
4328516, 0.015625, -0.016602, 0.912109, 2.134146, -1.219512, -0.243902, 33.047646
4330149, 0.022705, -0.013428, 0.910889, 2.134146, -1.036585, -0.243902, 33.094704
4331782, 0.020264, -0.012207, 0.914551, 2.134146, -1.097561, -0.182927, 33.141762
4333416, 0.021729, -0.019043, 0.909180, 2.195122, -0.975610, -0.060976, 33.188824
4335049, 0.019287, -0.008057, 0.918945, 2.317073, -1.097561, -0.121951, 33.235882
4336683, 0.015137, -0.011963, 0.927246, 2.317073, -0.975610, -0.304878, 33.094704
4338316, 0.029053, -0.014648, 0.907959, 2.134146, -1.097561, -0.121951, 33.047646
4339949, 0.021240, -0.010742, 0.906982, 2.134146, -0.853659, -0.182927, 33.094704
4341583, 0.019287, -0.014893, 0.918457, 2.134146, -1.158537, -0.060976, 33.188824
4343216, 0.022949, -0.015625, 0.913086, 2.134146, -1.097561, -0.060976, 33.141762
4344850, 0.019287, -0.012695, 0.912598, 2.134146, -0.914634, -0.182927, 33.094704
4346483, 0.024902, -0.010742, 0.917480, 2.195122, -1.036585, -0.365854, 33.141762
4348117, 0.018311, -0.013184, 0.918457, 2.134146, -0.914634, -0.182927, 33.188824
4349751, 0.012451, -0.014404, 0.916016, 2.256098, -1.097561, -0.243902, 33.141762
4351384, 0.025879, -0.015869, 0.917969, 2.134146, -1.097561, -0.365854, 33.094704
4353007, 0.025635, -0.021484, 0.911621, 2.256098, -0.914634, -0.243902, 33.235882
4354641, 0.020752, -0.020508, 0.914307, 2.256098, -0.914634, -0.243902, 33.094704
4356274, 0.014893, -0.017090, 0.911133, 2.134146, -0.853659, -0.365854, 33.141762
4357908, 0.014404, -0.017578, 0.909668, 2.256098, -1.158537, -0.182927, 33.094704
4359541, 0.026367, -0.012939, 0.919189, 2.256098, -1.036585, -0.121951, 33.141762
4361174, 0.014893, -0.017090, 0.914062, 2.073171, -1.097561, -0.182927, 33.094704
4362808, 0.013916, -0.016357, 0.914307, 2.195122, -1.097561, -0.060976, 33.235882
4364441, 0.018066, -0.016602, 0.913330, 2.317073, -1.036585, -0.304878, 33.094704
4366075, 0.019287, -0.013672, 0.915771, 2.256098, -1.158537, -0.365854, 33.141762
4367708, 0.018799, -0.015381, 0.916748, 2.134146, -1.036585, -0.182927, 33.094704
4369341, 0.018311, -0.014404, 0.910889, 2.195122, -1.219512, -0.121951, 33.141762
4370975, 0.019531, -0.012939, 0.916748, 2.134146, -0.914634, -0.304878, 33.094704
4372615, 0.029297, -0.021729, 0.920654, 2.378049, -1.036585, -0.243902, 33.000587
4374248, 0.023682, -0.011963, 0.914551, 2.317073, -1.158537, -0.243902, 33.141762
4375882, 0.020508, -0.019287, 0.917480, 2.195122, -0.975610, -0.243902, 33.188824
4377516, 0.021973, -0.011230, 0.910400, 2.012195, -1.036585, -0.304878, 33.141762
4379149, 0.020508, -0.020752, 0.920166, 2.134146, -1.158537, -0.060976, 33.094704
4380782, 0.021240, -0.017090, 0.920166, 2.134146, -1.219512, -0.182927, 33.141762
4382416, 0.017822, -0.013428, 0.926270, 2.012195, -1.036585, -0.121951, 33.094704
4384049, 0.020752, -0.018311, 0.908203, 1.951220, -1.036585, -0.365854, 33.141762
4385683, 0.017090, -0.015137, 0.918213, 2.256098, -1.158537, -0.365854, 33.188824
4387316, 0.020020, -0.016602, 0.915527, 2.256098, -0.975610, -0.182927, 33.047646
4388949, 0.014404, -0.013184, 0.909424, 2.073171, -1.036585, -0.243902, 33.094704
4390583, 0.021240, -0.017090, 0.911621, 2.012195, -0.975610, -0.243902, 33.141762
4392216, 0.018799, -0.010742, 0.916748, 2.134146, -0.731707, -0.304878, 33.094704
4393850, 0.016357, -0.007812, 0.921631, 2.195122, -1.280488, -0.121951, 33.141762
4395483, 0.018799, -0.016602, 0.915771, 2.134146, -1.158537, -0.304878, 33.188824
4397117, 0.012695, -0.013184, 0.918457, 2.073171, -0.914634, -0.182927, 33.047646
4398751, 0.017578, -0.015137, 0.922607, 2.134146, -0.975610, -0.243902, 33.141762
4400384, 0.020508, -0.017578, 0.922852, 2.256098, -1.219512, -0.182927, 33.094704
4402007, 0.023682, -0.018799, 0.906738, 2.073171, -1.158537, -0.243902, 33.188824
4403641, 0.020020, -0.017822, 0.917969, 2.195122, -1.097561, -0.243902, 33.188824
4405274, 0.013916, -0.020264, 0.910889, 2.134146, -0.975610, -0.121951, 33.141762
4406908, 0.017822, -0.013672, 0.916748, 2.195122, -0.975610, -0.121951, 33.094704
4408541, 0.012939, -0.015137, 0.917236, 2.195122, -1.097561, -0.121951, 33.047646
4410174, 0.020020, -0.016357, 0.916992, 2.195122, -1.097561, 0.000000, 33.094704
4411808, 0.018799, -0.019043, 0.914062, 2.195122, -1.036585, -0.426829, 33.141762
4413441, 0.020752, -0.017334, 0.909424, 2.073171, -0.975610, -0.121951, 33.094704
4415075, 0.016113, -0.010010, 0.912842, 2.195122, -1.097561, 0.000000, 33.047646
4416708, 0.013428, -0.017334, 0.914307, 2.195122, -1.158537, -0.121951, 33.094704
4418341, 0.017090, -0.018555, 0.906006, 2.012195, -1.158537, -0.304878, 33.141762
4419975, 0.021973, -0.020508, 0.910645, 2.195122, -1.158537, -0.243902, 33.094704
4421615, 0.021484, -0.013916, 0.909424, 2.195122, -0.975610, -0.243902, 33.047646
4423248, 0.022705, -0.019531, 0.920410, 2.012195, -1.097561, -0.304878, 33.094704
4424882, 0.020020, -0.016357, 0.915283, 2.073171, -0.975610, -0.304878, 33.141762
4426516, 0.020020, -0.016113, 0.906494, 2.256098, -1.158537, -0.121951, 33.188824
4428149, 0.017578, -0.017090, 0.911133, 2.378049, -1.036585, -0.365854, 33.094704
4429782, 0.022217, -0.016357, 0.908203, 2.134146, -0.975610, -0.182927, 33.141762
4431416, 0.022217, -0.012939, 0.914551, 2.256098, -1.219512, -0.182927, 33.094704
4433049, 0.014404, -0.011475, 0.915283, 2.134146, -1.097561, -0.182927, 33.094704
4434683, 0.019287, -0.013428, 0.913330, 2.073171, -1.036585, -0.304878, 33.094704
4436316, 0.017090, -0.012695, 0.913330, 2.073171, -1.036585, -0.243902, 33.141762
4437949, 0.020508, -0.010010, 0.915039, 2.195122, -1.097561, -0.121951, 33.000587
4439583, 0.015869, -0.020020, 0.921875, 2.195122, -1.036585, -0.243902, 33.141762
4441216, 0.014404, -0.017578, 0.919434, 2.256098, -1.219512, -0.304878, 33.188824
4442850, 0.019287, -0.013916, 0.913818, 2.134146, -0.975610, -0.121951, 33.047646
4444483, 0.022217, -0.019531, 0.910889, 2.012195, -1.097561, -0.182927, 33.094704
4446117, 0.021729, -0.017578, 0.919189, 2.134146, -1.097561, -0.182927, 33.141762
4447751, 0.020264, -0.017822, 0.916260, 2.134146, -1.036585, -0.060976, 33.188824
4449384, 0.015869, -0.013184, 0.925781, 2.012195, -1.097561, -0.243902, 33.047646
4451007, 0.016357, -0.015625, 0.921143, 2.073171, -1.097561, -0.182927, 33.094704
4452641, 0.019531, -0.019531, 0.918213, 2.073171, -1.036585, -0.182927, 33.141762
4454274, 0.021729, -0.015137, 0.917236, 2.195122, -0.914634, -0.304878, 33.094704
4455908, 0.017334, -0.010254, 0.917725, 2.378049, -0.914634, -0.243902, 33.141762
4457541, 0.020020, -0.017090, 0.920898, 2.195122, -1.036585, -0.182927, 33.094704
4459174, 0.019531, -0.015869, 0.919434, 2.195122, -1.097561, -0.060976, 33.094704
4460808, 0.019287, -0.017578, 0.917236, 2.256098, -0.853659, -0.121951, 33.141762
4462441, 0.019043, -0.016357, 0.916748, 2.012195, -1.280488, -0.182927, 33.188824
4464075, 0.015625, -0.012695, 0.918213, 1.951220, -0.975610, -0.243902, 33.094704
4465708, 0.021729, -0.020508, 0.915771, 2.195122, -1.036585, -0.121951, 33.188824
4467341, 0.009521, -0.016357, 0.913574, 2.134146, -1.219512, -0.243902, 33.141762
4468975, 0.013916, -0.017334, 0.922119, 2.134146, -1.036585, -0.243902, 33.094704
4470615, 0.014893, -0.013672, 0.914551, 2.256098, -1.036585, -0.304878, 33.047646
4472248, 0.018799, -0.016602, 0.923096, 2.134146, -1.219512, -0.304878, 33.094704
4473882, 0.018799, -0.016113, 0.916748, 2.134146, -0.792683, -0.121951, 33.047646
4475516, 0.018799, -0.015137, 0.910889, 2.195122, -0.975610, -0.304878, 33.094704
4477149, 0.020508, -0.014648, 0.915283, 2.012195, -0.792683, -0.182927, 33.047646
4478782, 0.018311, -0.015869, 0.912598, 2.195122, -0.975610, -0.243902, 33.094704
4480416, 0.019775, -0.011963, 0.917480, 2.195122, -1.280488, -0.182927, 33.141762
4482049, 0.017334, -0.015137, 0.910156, 2.195122, -1.036585, -0.243902, 33.094704
4483683, 0.019287, -0.015869, 0.920166, 2.195122, -1.036585, -0.243902, 33.141762
4485316, 0.017334, -0.017822, 0.920410, 2.195122, -0.914634, -0.182927, 33.094704
4486949, 0.017578, -0.015381, 0.916748, 2.256098, -1.158537, -0.243902, 33.094704
4488583, 0.018555, -0.015869, 0.917236, 2.317073, -1.036585, -0.426829, 33.141762
4490216, 0.018066, -0.017334, 0.910645, 2.378049, -0.975610, -0.243902, 33.094704
4491850, 0.019043, -0.017578, 0.903076, 2.317073, -1.097561, -0.182927, 33.141762
4493483, 0.018311, -0.018555, 0.917969, 1.951220, -1.097561, -0.182927, 33.188824
4495117, 0.021240, -0.018066, 0.919189, 2.073171, -1.097561, -0.182927, 33.188824
4496751, 0.017334, -0.016846, 0.916016, 2.317073, -0.914634, -0.304878, 33.188824
4498384, 0.013428, -0.012451, 0.921631, 2.073171, -1.158537, -0.121951, 33.141762
4500007, 0.013672, -0.018799, 0.918213, 2.073171, -1.036585, -0.060976, 33.188824
4501641, 0.021484, -0.015381, 0.912109, 2.195122, -1.036585, -0.365854, 33.047646
4503274, 0.018066, -0.016846, 0.910400, 2.073171, -1.158537, -0.365854, 33.188824
4504908, 0.018311, -0.017578, 0.915771, 2.073171, -1.158537, -0.121951, 33.141762
4506541, 0.018555, -0.009521, 0.927002, 2.256098, -1.097561, -0.243902, 33.094704
4508174, 0.030518, -0.016846, 0.915039, 2.134146, -1.036585, -0.304878, 33.141762
4509808, 0.024902, -0.019043, 0.918213, 2.195122, -0.975610, -0.243902, 33.094704
4511441, 0.022705, -0.015869, 0.917969, 2.134146, -0.914634, -0.121951, 33.141762
4513075, 0.020508, -0.018555, 0.908936, 2.256098, -1.036585, -0.121951, 33.094704
4514708, 0.014404, -0.015869, 0.915771, 2.378049, -1.219512, -0.243902, 32.953529
4516341, 0.021240, -0.016113, 0.916504, 2.256098, -1.036585, -0.060976, 33.188824
4517975, 0.023193, -0.015869, 0.911621, 2.134146, -1.158537, -0.060976, 33.282940
4519615, 0.023193, -0.016357, 0.923584, 2.134146, -1.097561, 0.000000, 33.141762
4521248, 0.017334, -0.017822, 0.919189, 2.134146, -1.158537, -0.182927, 33.188824
4522882, 0.018799, -0.020020, 0.917969, 2.012195, -1.097561, -0.243902, 33.141762
4524516, 0.014893, -0.014893, 0.919678, 2.317073, -1.158537, -0.060976, 33.188824
4526149, 0.014648, -0.017822, 0.923584, 2.134146, -1.158537, -0.182927, 33.094704
4527782, 0.015869, -0.020020, 0.919189, 2.073171, -1.097561, -0.243902, 33.188824
4529416, 0.027588, -0.021973, 0.906982, 2.256098, -1.158537, -0.304878, 33.235882
4531049, 0.020020, -0.015625, 0.917236, 2.134146, -1.158537, -0.182927, 33.094704
4532683, 0.017578, -0.012451, 0.911621, 2.012195, -1.158537, -0.182927, 33.047646
4534316, 0.019775, -0.014893, 0.907959, 2.134146, -0.914634, 0.000000, 33.094704
4535949, 0.019287, -0.011963, 0.916016, 2.012195, -1.097561, -0.304878, 33.141762
4537583, 0.013672, -0.017578, 0.913574, 2.073171, -0.853659, -0.243902, 33.094704
4539216, 0.020752, -0.015381, 0.916504, 2.256098, -1.097561, -0.121951, 33.141762
4540850, 0.021484, -0.013428, 0.914307, 2.195122, -1.158537, -0.304878, 33.094704
4542483, 0.022461, -0.019287, 0.909912, 2.073171, -1.097561, -0.426829, 33.235882
4544117, 0.021484, -0.017334, 0.914551, 2.134146, -1.097561, -0.182927, 33.188824
4545751, 0.017578, -0.018066, 0.911377, 2.073171, -0.975610, 0.000000, 33.094704
4547384, 0.020508, -0.016602, 0.908203, 2.134146, -0.975610, -0.304878, 33.141762
4549007, 0.015137, -0.012451, 0.912598, 2.134146, -1.158537, -0.243902, 33.094704
4550641, 0.020020, -0.018799, 0.907471, 2.012195, -1.036585, -0.243902, 33.141762
4552274, 0.020020, -0.017334, 0.917236, 2.195122, -1.158537, -0.243902, 33.000587
4553908, 0.019043, -0.018066, 0.918701, 2.134146, -1.036585, -0.243902, 33.141762
4555541, 0.013672, -0.019043, 0.908691, 2.134146, -1.097561, -0.060976, 33.188824
4557174, 0.020020, -0.014893, 0.915527, 2.195122, -1.219512, -0.182927, 33.094704
4558808, 0.020508, -0.013184, 0.913086, 2.256098, -0.975610, -0.182927, 33.094704
4560441, 0.019287, -0.016846, 0.914551, 2.317073, -1.036585, -0.304878, 33.141762
4562075, 0.023682, -0.019531, 0.911621, 2.134146, -1.097561, -0.304878, 33.188824
4563708, 0.021240, -0.018066, 0.916748, 2.195122, -1.158537, -0.304878, 33.235882
4565341, 0.023926, -0.014404, 0.922363, 2.256098, -1.280488, -0.182927, 33.188824
4566975, 0.022461, -0.015625, 0.917969, 2.134146, -1.097561, -0.182927, 33.141762
4568615, 0.018311, -0.014893, 0.921875, 2.195122, -1.280488, -0.182927, 33.094704
4570248, 0.018799, -0.014160, 0.914307, 2.134146, -0.975610, -0.304878, 33.047646
4571882, 0.025635, -0.012939, 0.916992, 2.195122, -0.975610, -0.243902, 33.000587
4573516, 0.020508, -0.012939, 0.917480, 2.134146, -1.097561, -0.182927, 33.141762
4575149, 0.017334, -0.017822, 0.922852, 2.256098, -1.097561, -0.548781, 33.094704
4576782, 0.029053, -0.015137, 0.914307, 2.195122, -1.158537, -0.121951, 33.094704
4578416, 0.016113, -0.015869, 0.914795, 2.195122, -1.036585, -0.060976, 33.047646
4580049, 0.018799, -0.012939, 0.913818, 2.134146, -1.158537, -0.182927, 33.094704
4581683, 0.019531, -0.020020, 0.916748, 2.012195, -1.158537, -0.243902, 33.047646
4583316, 0.017334, -0.014160, 0.914551, 2.073171, -0.853659, -0.182927, 33.094704
4584949, 0.019287, -0.013916, 0.912109, 2.134146, -0.975610, -0.365854, 33.141762
4586583, 0.020508, -0.016846, 0.908936, 2.256098, -1.158537, -0.243902, 33.094704
4588216, 0.014648, -0.015625, 0.914307, 2.317073, -1.158537, -0.182927, 33.235882
4589850, 0.017090, -0.016846, 0.916016, 2.134146, -1.158537, -0.060976, 33.094704
4591483, 0.021240, -0.017578, 0.908936, 2.134146, -1.158537, 0.000000, 33.141762
4593117, 0.017822, -0.012451, 0.909668, 2.256098, -1.097561, -0.060976, 33.094704
4594751, 0.019287, -0.021484, 0.921143, 2.012195, -0.975610, -0.182927, 33.141762
4596384, 0.016357, -0.018555, 0.910400, 2.195122, -1.036585, -0.182927, 33.094704
4598007, 0.023682, -0.011719, 0.913818, 2.073171, -1.097561, -0.304878, 33.141762
4599641, 0.018799, -0.016846, 0.921143, 2.317073, -1.402439, -0.060976, 33.094704
4601274, 0.022217, -0.013672, 0.918701, 2.195122, -1.158537, 0.060976, 33.047646
4602908, 0.016846, -0.013184, 0.912354, 2.134146, -0.975610, -0.243902, 33.188824
4604541, 0.021729, -0.017090, 0.918945, 2.195122, -0.914634, -0.121951, 33.141762
4606174, 0.022705, -0.012695, 0.916016, 2.256098, -1.097561, -0.121951, 33.094704
4607808, 0.012939, -0.012451, 0.914307, 2.195122, -1.036585, -0.182927, 33.000587
4609441, 0.015869, -0.017822, 0.921387, 2.134146, -0.853659, -0.304878, 33.141762
4611075, 0.021484, -0.018311, 0.914307, 2.134146, -1.158537, -0.426829, 33.094704
4612708, 0.023438, -0.012939, 0.914551, 2.317073, -1.219512, -0.243902, 33.141762
4614341, 0.015625, -0.013916, 0.920898, 2.256098, -1.036585, -0.304878, 33.094704
4615975, 0.015381, -0.018799, 0.908936, 2.378049, -1.036585, -0.060976, 33.047646
4617615, 0.019531, -0.017090, 0.912109, 2.256098, -1.036585, -0.121951, 33.094704
4619248, 0.021240, -0.013428, 0.918945, 2.317073, -1.036585, -0.243902, 33.047646
4620882, 0.016846, -0.012939, 0.906982, 2.012195, -0.914634, -0.304878, 33.188824
4622516, 0.018066, -0.011475, 0.911133, 2.073171, -0.975610, -0.426829, 33.047646
4624149, 0.018311, -0.015625, 0.913330, 2.439024, -1.036585, -0.121951, 33.094704
4625782, 0.017090, -0.016113, 0.917480, 2.195122, -0.975610, -0.060976, 33.141762
4627416, 0.020264, -0.013184, 0.914795, 2.195122, -1.280488, -0.304878, 33.094704
4629049, 0.029053, -0.020264, 0.920898, 2.195122, -1.158537, -0.121951, 33.141762
4630683, 0.012695, -0.017334, 0.914307, 2.134146, -0.853659, -0.243902, 33.094704
4632316, 0.018555, -0.016846, 0.917725, 2.256098, -1.097561, -0.182927, 33.141762
4633949, 0.022217, -0.011475, 0.911377, 2.134146, -0.975610, -0.182927, 33.141762
4635583, 0.016846, -0.014404, 0.915771, 2.195122, -1.036585, -0.426829, 33.188824
4637216, 0.024414, -0.016357, 0.907471, 2.012195, -1.158537, -0.304878, 33.188824
4638850, 0.020508, -0.014648, 0.912109, 2.073171, -1.036585, -0.182927, 33.094704
4640483, 0.020020, -0.015869, 0.905273, 2.195122, -1.036585, -0.121951, 33.141762
4642117, 0.019043, -0.018066, 0.914307, 2.195122, -0.975610, -0.182927, 33.094704
4643751, 0.018799, -0.013672, 0.920654, 2.317073, -1.158537, -0.121951, 33.141762
4645384, 0.018311, -0.013672, 0.916504, 2.256098, -0.914634, -0.304878, 33.094704
4647007, 0.022461, -0.010254, 0.907227, 2.195122, -1.158537, -0.182927, 33.047646
4648641, 0.020752, -0.010254, 0.922363, 2.317073, -1.158537, -0.182927, 33.094704
4650274, 0.022217, -0.011963, 0.913818, 1.890244, -1.219512, 0.000000, 33.141762
4651908, 0.018311, -0.018066, 0.907959, 2.195122, -1.036585, -0.243902, 33.188824
4653541, 0.021484, -0.019043, 0.914551, 2.317073, -1.158537, -0.182927, 33.141762
4655174, 0.021729, -0.015137, 0.914062, 2.256098, -1.158537, -0.182927, 33.188824
4656808, 0.019287, -0.016357, 0.909912, 2.195122, -1.097561, -0.243902, 33.235882
4658441, 0.018799, -0.013428, 0.910400, 2.195122, -1.280488, -0.182927, 33.094704
4660075, 0.016846, -0.012939, 0.923584, 2.256098, -1.158537, -0.182927, 33.141762
4661708, 0.019043, -0.016602, 0.907959, 2.195122, -1.097561, -0.060976, 33.000587
4663341, 0.020996, -0.013184, 0.913086, 2.195122, -1.280488, -0.487805, 33.141762
4664975, 0.024658, -0.015625, 0.914307, 2.195122, -1.097561, -0.182927, 33.141762
4666615, 0.022705, -0.020996, 0.915283, 2.256098, -1.097561, -0.243902, 33.094704
4668248, 0.029541, -0.014404, 0.911133, 2.256098, -0.975610, -0.243902, 33.094704
4669882, 0.018799, -0.014404, 0.911377, 2.134146, -1.097561, -0.121951, 33.188824
4671516, 0.021240, -0.013428, 0.926025, 2.012195, -1.036585, -0.182927, 33.047646
4673149, 0.018311, -0.015625, 0.919678, 2.073171, -1.158537, -0.243902, 33.000587
4674782, 0.024658, -0.015625, 0.913818, 2.195122, -0.914634, -0.304878, 33.141762
4676416, 0.023438, -0.015869, 0.913574, 2.195122, -1.036585, -0.243902, 33.094704
4678049, 0.021973, -0.015381, 0.913086, 2.195122, -1.036585, -0.243902, 33.047646
4679683, 0.022949, -0.010010, 0.914551, 2.134146, -0.914634, -0.243902, 33.094704
4681316, 0.016357, -0.010010, 0.913330, 2.134146, -1.036585, -0.243902, 33.047646
4682949, 0.020020, -0.012695, 0.908936, 2.012195, -0.975610, -0.121951, 33.000587
4684583, 0.016602, -0.010986, 0.920166, 2.134146, -1.219512, -0.182927, 33.141762
4686216, 0.018311, -0.016357, 0.913818, 2.012195, -1.097561, -0.182927, 33.094704
4687850, 0.020020, -0.020508, 0.916992, 2.134146, -1.219512, -0.304878, 33.141762
4689483, 0.023682, -0.020752, 0.904053, 2.195122, -1.036585, -0.304878, 33.094704
4691117, 0.016846, -0.016602, 0.911865, 2.195122, -1.158537, -0.121951, 33.141762
4692751, 0.023193, -0.014160, 0.920166, 2.195122, -1.036585, -0.182927, 33.141762
4694384, 0.020996, -0.021484, 0.921143, 2.378049, -1.158537, -0.365854, 33.188824
4696007, 0.019775, -0.021240, 0.922852, 2.195122, -1.097561, -0.182927, 33.141762
4697641, 0.024414, -0.013672, 0.922363, 2.134146, -1.036585, -0.121951, 33.000587
4699274, 0.022949, -0.009033, 0.916992, 2.256098, -1.036585, -0.243902, 33.094704
4700908, 0.012939, -0.018799, 0.918213, 2.195122, -1.097561, -0.121951, 33.094704
4702541, 0.018311, -0.019531, 0.918945, 2.134146, -1.097561, -0.243902, 33.141762
4704174, 0.019287, -0.014648, 0.918213, 1.951220, -1.036585, -0.182927, 33.094704
4705808, 0.022217, -0.020996, 0.919678, 2.134146, -1.158537, -0.243902, 33.141762
4707441, 0.017578, -0.013428, 0.913330, 2.073171, -0.975610, 0.000000, 33.188824
4709075, 0.020020, -0.010742, 0.914551, 2.195122, -1.097561, -0.121951, 33.047646
4710708, 0.019287, -0.012695, 0.917236, 2.134146, -1.097561, -0.121951, 33.094704
4712341, 0.023438, -0.008057, 0.922852, 2.012195, -1.036585, -0.121951, 33.047646
4713975, 0.022461, -0.019775, 0.914551, 2.073171, -1.097561, -0.365854, 33.094704
4715615, 0.021484, -0.013184, 0.917236, 2.195122, -1.158537, -0.426829, 33.141762
4717248, 0.018799, -0.015137, 0.912598, 2.195122, -0.975610, -0.182927, 33.188824
4718882, 0.015381, -0.011475, 0.918213, 2.195122, -1.097561, -0.121951, 33.141762
4720516, 0.018799, -0.014404, 0.916260, 2.134146, -1.097561, -0.060976, 33.094704
4722149, 0.014160, -0.014893, 0.911133, 2.073171, -0.975610, -0.121951, 33.094704
4723782, 0.020264, -0.019043, 0.918701, 2.134146, -1.219512, -0.182927, 33.141762
4725416, 0.016113, -0.015869, 0.912354, 2.073171, -1.219512, -0.182927, 33.094704
4727049, 0.019287, -0.016357, 0.912354, 2.317073, -1.036585, -0.243902, 33.047646
4728683, 0.015625, -0.022461, 0.913574, 2.256098, -1.036585, -0.121951, 33.094704
4730316, 0.020020, -0.014648, 0.916992, 2.073171, -1.158537, -0.060976, 33.188824
4731949, 0.016357, -0.018555, 0.908691, 2.195122, -1.158537, -0.243902, 33.188824
4733583, 0.020020, -0.012451, 0.915283, 2.012195, -1.036585, -0.243902, 33.141762
4735216, 0.019531, -0.021484, 0.907959, 2.134146, -1.158537, -0.243902, 33.094704
4736850, 0.014648, -0.018799, 0.920410, 2.134146, -1.341463, -0.182927, 33.141762
4738483, 0.024170, -0.020996, 0.922119, 2.195122, -1.097561, -0.121951, 33.094704
4740117, 0.020996, -0.019531, 0.913818, 2.012195, -1.097561, 0.121951, 33.235882
4741751, 0.022949, -0.019043, 0.920898, 2.317073, -1.036585, -0.121951, 33.094704
4743384, 0.016846, -0.019043, 0.920898, 2.256098, -1.097561, -0.304878, 33.141762
4745007, 0.015137, -0.016357, 0.914795, 2.195122, -1.158537, -0.121951, 33.188824
4746641, 0.013916, -0.014648, 0.924805, 2.195122, -0.975610, 0.000000, 33.047646
4748274, 0.021240, -0.015869, 0.920410, 2.012195, -1.036585, -0.243902, 33.094704
4749908, 0.011963, -0.018555, 0.916748, 2.012195, -1.280488, -0.365854, 33.047646
4751541, 0.019775, -0.017334, 0.912598, 2.134146, -1.219512, -0.548781, 33.188824
4753174, 0.017090, -0.018555, 0.917969, 2.073171, -1.097561, -0.304878, 33.094704
4754808, 0.026123, -0.020508, 0.911621, 2.134146, -1.036585, -0.365854, 33.141762
4756441, 0.017334, -0.013916, 0.914307, 2.073171, -1.036585, -0.365854, 33.094704
4758075, 0.024902, -0.013428, 0.920410, 2.256098, -1.219512, -0.243902, 33.047646
4759708, 0.018311, -0.014893, 0.915283, 2.134146, -1.097561, -0.182927, 33.094704
4761341, 0.016846, -0.015869, 0.916260, 2.317073, -0.975610, -0.182927, 33.188824
4762975, 0.018555, -0.020020, 0.915283, 2.256098, -1.158537, -0.182927, 33.094704
4764615, 0.022705, -0.012939, 0.908936, 2.256098, -1.097561, 0.000000, 33.047646
4766248, 0.022705, -0.015869, 0.905762, 2.378049, -0.914634, -0.060976, 33.000587
4767882, 0.024902, -0.012451, 0.914795, 2.073171, -1.158537, -0.121951, 33.047646
4769516, 0.013916, -0.019287, 0.914307, 2.012195, -1.036585, -0.182927, 33.188824
4771149, 0.012451, -0.015869, 0.916016, 2.073171, -1.036585, -0.243902, 33.141762
4772782, 0.013916, -0.018311, 0.909668, 2.195122, -0.914634, -0.243902, 33.094704
4774416, 0.015869, -0.016846, 0.925049, 2.012195, -1.158537, -0.243902, 33.141762
4776049, 0.018311, -0.018066, 0.907471, 2.256098, -1.158537, -0.182927, 33.094704
4777683, 0.015381, -0.023193, 0.917725, 2.256098, -1.097561, -0.060976, 33.047646
4779316, 0.016357, -0.010010, 0.918701, 2.256098, -1.097561, -0.243902, 33.094704
4780949, 0.017334, -0.013672, 0.910156, 2.195122, -1.036585, -0.121951, 33.188824
4782583, 0.018555, -0.020996, 0.913086, 2.134146, -1.036585, -0.182927, 33.141762
4784216, 0.017822, -0.017090, 0.913086, 2.317073, -1.036585, -0.182927, 33.188824
4785850, 0.017822, -0.015137, 0.919678, 2.195122, -1.036585, -0.060976, 33.141762
4787483, 0.019531, -0.021973, 0.917480, 2.012195, -1.097561, -0.121951, 33.188824
4789117, 0.026611, -0.015381, 0.919922, 2.195122, -0.975610, -0.243902, 33.235882
4790751, 0.021484, -0.018799, 0.915039, 2.439024, -1.219512, -0.182927, 33.094704
4792384, 0.026611, -0.017334, 0.917969, 2.134146, -1.158537, -0.182927, 33.141762
4794007, 0.021240, -0.014404, 0.919678, 2.073171, -1.158537, -0.182927, 33.094704
4795641, 0.016357, -0.011719, 0.920654, 2.073171, -1.158537, -0.182927, 33.141762
4797274, 0.019775, -0.011230, 0.917236, 2.073171, -1.097561, -0.121951, 33.094704
4798908, 0.019287, -0.019531, 0.918701, 2.012195, -1.036585, -0.182927, 33.141762
4800541, 0.019531, -0.008545, 0.910400, 2.195122, -1.097561, -0.182927, 33.188824
4802174, 0.024170, -0.012451, 0.916260, 2.317073, -1.097561, -0.182927, 33.047646
4803808, 0.016357, -0.020996, 0.919434, 2.256098, -1.219512, -0.121951, 33.094704
4805441, 0.020508, -0.017578, 0.918213, 2.073171, -1.158537, -0.243902, 33.141762
4807075, 0.022217, -0.013916, 0.918701, 2.134146, -1.097561, -0.243902, 33.188824
4808708, 0.019287, -0.019043, 0.916504, 2.134146, -1.036585, -0.060976, 33.141762
4810341, 0.016602, -0.013916, 0.912598, 2.256098, -0.975610, -0.182927, 33.188824
4811975, 0.023438, -0.014893, 0.923340, 2.073171, -1.036585, -0.060976, 33.188824
4813615, 0.023926, -0.013672, 0.910156, 2.073171, -0.975610, -0.304878, 33.141762
4815248, 0.019043, -0.015625, 0.909668, 2.195122, -0.792683, -0.365854, 33.188824
4816882, 0.021240, -0.016113, 0.916748, 2.134146, -1.097561, -0.243902, 33.047646
4818516, 0.025146, -0.013428, 0.920654, 2.073171, -1.036585, -0.243902, 33.000587
4820149, 0.022461, -0.015381, 0.914795, 2.134146, -0.914634, -0.182927, 33.141762
4821782, 0.019531, -0.019531, 0.911377, 2.195122, -1.219512, -0.243902, 33.094704
4823416, 0.016602, -0.013916, 0.911377, 2.134146, -1.036585, -0.243902, 33.141762
4825049, 0.014160, -0.017090, 0.916016, 2.195122, -1.219512, -0.304878, 33.094704
4826683, 0.020508, -0.019287, 0.919922, 2.012195, -1.036585, -0.243902, 33.047646
4828316, 0.022949, -0.020752, 0.915039, 2.134146, -0.853659, -0.304878, 33.188824
4829949, 0.027588, -0.015625, 0.916504, 2.256098, -1.036585, -0.182927, 33.141762
4831583, 0.027588, -0.020508, 0.907471, 2.134146, -1.097561, -0.121951, 33.000587
