=~=~=~=~=~=~=~=~=~=~=~= PuTTY log 2026.06.19 19:11:05 =~=~=~=~=~=~=~=~=~=~=~=
timeInstance,gyroX,gyroY,gyroZ,accX,accY,accZ,temp
59508202,-4.878049,0.670732,-1.158537,0.038818,-0.001465,0.506592,31.635881
59509531,-4.817073,0.670732,-1.280488,0.040283,-0.003662,0.502930,31.635881
59510575,-4.756098,0.670732,-1.036585,0.038330,-0.003662,0.500732,31.682940
59511621,-4.939024,0.731707,-1.097561,0.034424,-0.005615,0.522705,31.588821
59512674,-4.939024,0.792683,-0.975610,0.037842,-0.005615,0.523193,31.682940
59513697,-4.939024,0.914634,-1.097561,0.030029,-0.003418,0.506104,31.635881
59514737,-4.817073,0.853659,-1.097561,0.029785,0.000244,0.516602,31.635881
59515763,-4.939024,0.731707,-1.097561,0.036621,-0.000977,0.503662,31.541763
59516807,-4.939024,0.731707,-0.975610,0.035889,-0.002197,0.507812,31.635881
59517944,-5.060976,0.792683,-0.914634,0.031738,-0.001953,0.516357,31.588821
59519005,-5.000000,0.609756,-0.975610,0.040527,-0.004883,0.514648,31.541763
59520042,-4.878049,0.670732,-1.158537,0.039551,-0.000488,0.512939,31.635881
59521077,-4.878049,0.792683,-1.158537,0.031494,-0.001953,0.520020,31.682940
59522112,-4.817073,0.670732,-0.914634,0.034668,-0.004639,0.513672,31.494705
59523145,-4.939024,0.426829,-0.975610,0.034668,-0.007812,0.518555,31.588821
59524243,-4.939024,0.548781,-1.158537,0.038330,-0.006348,0.520020,31.541763
59525306,-4.878049,0.792683,-1.036585,0.031738,-0.000732,0.509277,31.682940
59526348,-4.939024,0.731707,-0.975610,0.034424,-0.002441,0.513428,31.588821
59527396,-4.817073,0.609756,-1.036585,0.036621,-0.003906,0.507324,31.588821
59528444,-4.756098,0.731707,-0.914634,0.036865,-0.005371,0.511475,31.635881
59529497,-4.817073,0.792683,-1.036585,0.039062,-0.004639,0.502197,31.635881
59530603,-5.000000,0.609756,-0.914634,0.039307,-0.002930,0.507324,31.682940
59531684,-5.060976,0.670732,-0.792683,0.038086,-0.000977,0.510986,31.682940
59532711,-5.121951,0.853659,-1.097561,0.035889,-0.002686,0.514893,31.730000
59533751,-5.000000,0.853659,-1.036585,0.033447,-0.006592,0.510254,31.635881
59534772,-4.939024,0.731707,-0.975610,0.039307,-0.000488,0.514648,31.635881
59535814,-4.939024,0.609756,-0.975610,0.037598,-0.002197,0.516357,31.682940
59536839,-4.939024,0.609756,-1.036585,0.034912,-0.003418,0.512695,31.682940
59537899,-4.817073,0.609756,-1.097561,0.038330,0.000244,0.508789,31.494705
59538932,-4.817073,0.792683,-1.219512,0.039307,0.004639,0.508057,31.588821
59539971,-4.817073,0.853659,-1.219512,0.035400,0.001221,0.505371,31.588821
59541003,-4.817073,0.853659,-1.036585,0.038086,-0.002686,0.502686,31.635881
59542054,-5.000000,0.853659,-1.036585,0.032959,-0.000732,0.509521,31.588821
59543080,-4.939024,0.853659,-0.975610,0.037598,-0.000977,0.507812,31.588821
59544166,-4.878049,0.914634,-1.158537,0.040039,-0.002930,0.511963,31.682940
59545245,-5.000000,0.975610,-1.280488,0.041748,0.000244,0.511475,31.635881
59546288,-5.000000,0.670732,-1.097561,0.042725,-0.003418,0.510010,31.635881
59547325,-4.939024,0.548781,-1.219512,0.036865,-0.000244,0.507324,31.682940
59548359,-4.878049,0.670732,-0.975610,0.038086,0.000732,0.506592,31.682940
59549399,-4.756098,0.792683,-1.097561,0.039551,-0.000732,0.513428,31.588821
59550436,-4.756098,0.548781,-1.158537,0.037109,-0.001953,0.518555,31.541763
59551486,-4.939024,0.670732,-1.097561,0.039307,-0.000977,0.512451,31.635881
59552535,-5.060976,0.670732,-1.097561,0.036377,0.000488,0.507812,31.541763
59553627,-5.121951,0.731707,-0.975610,0.029785,-0.000488,0.505371,31.494705
59554694,-5.121951,0.792683,-0.914634,0.031250,-0.000488,0.510742,31.635881
59555737,-5.000000,0.670732,-1.036585,0.034912,-0.000488,0.507812,31.541763
59556835,-4.939024,0.670732,-1.097561,0.034668,-0.005371,0.508057,31.588821
59557882,-5.000000,0.670732,-1.158537,0.036377,-0.000977,0.508789,31.588821
59558937,-5.000000,0.731707,-1.097561,0.042969,-0.006592,0.511475,31.588821
59560000,-5.000000,0.792683,-1.036585,0.034912,-0.001221,0.515625,31.635881
59561049,-5.060976,0.792683,-0.853659,0.039062,-0.003662,0.511475,31.588821
59562144,-5.060976,0.670732,-0.975610,0.036865,-0.002930,0.513428,31.588821
59563198,-5.000000,0.670732,-1.097561,0.035645,-0.003662,0.515381,31.730000
59564239,-4.939024,0.853659,-0.975610,0.034668,0.000244,0.510010,31.635881
59565273,-4.878049,1.036585,-0.914634,0.041016,0.002686,0.516357,31.635881
59566309,-4.817073,0.792683,-1.097561,0.039307,0.000488,0.518799,31.682940
59567344,-4.756098,0.609756,-1.036585,0.038818,-0.000488,0.514648,31.588821
59568389,-4.817073,0.487805,-1.097561,0.037598,-0.000977,0.504395,31.588821
59569432,-4.878049,0.670732,-1.219512,0.037109,-0.004883,0.507080,31.541763
59570492,-5.000000,0.792683,-0.914634,0.036621,-0.002686,0.507568,31.541763
59571544,-5.060976,0.731707,-0.914634,0.033203,-0.001709,0.517090,31.494705
59572594,-5.060976,0.975610,-1.097561,0.031250,0.000732,0.509521,31.588821
59573645,-4.878049,0.731707,-1.097561,0.039551,0.000732,0.505127,31.588821
59574683,-4.817073,0.609756,-0.853659,0.035889,-0.003662,0.510254,31.541763
59575725,-4.878049,0.548781,-0.853659,0.032471,-0.010254,0.508545,31.635881
59576754,-5.060976,0.670732,-1.036585,0.034180,-0.000732,0.510986,31.635881
59577803,-5.000000,0.853659,-0.975610,0.033447,0.003174,0.504883,31.682940
59578826,-4.939024,0.731707,-1.097561,0.036133,-0.000977,0.507080,31.682940
59579864,-5.000000,0.609756,-1.158537,0.032227,-0.005127,0.516602,31.588821
59580892,-4.817073,0.731707,-0.975610,0.036133,-0.002197,0.517334,31.588821
59581933,-4.634146,0.670732,-1.219512,0.030029,-0.004639,0.515381,31.588821
59582984,-4.756098,0.609756,-1.158537,0.038086,-0.002197,0.504150,31.541763
59584026,-4.939024,0.670732,-1.158537,0.039062,-0.002930,0.508789,31.541763
59585117,-5.060976,0.609756,-1.219512,0.034180,-0.004639,0.516357,31.682940
59586182,-5.060976,0.609756,-0.975610,0.034668,-0.002197,0.508789,31.541763
59587244,-5.000000,0.609756,-1.036585,0.031250,-0.000488,0.506836,31.635881
59588295,-5.060976,0.670732,-1.158537,0.034180,0.001709,0.510254,31.588821
59589327,-5.060976,0.731707,-1.280488,0.032959,0.001221,0.510498,31.682940
59590362,-5.000000,0.914634,-1.036585,0.036621,-0.005371,0.510498,31.588821
59591409,-5.000000,1.097561,-0.975610,0.032227,0.000488,0.509277,31.682940
59592446,-4.939024,0.853659,-1.158537,0.036133,0.000488,0.510742,31.635881
59593491,-4.939024,0.731707,-1.036585,0.031250,-0.005127,0.505859,31.541763
59594547,-5.060976,0.670732,-0.914634,0.028076,0.001709,0.503174,31.588821
59595587,-5.000000,0.792683,-0.914634,0.028564,0.002197,0.512207,31.588821
59596635,-4.878049,0.853659,-1.036585,0.036621,-0.002441,0.511719,31.494705
59597682,-4.756098,0.792683,-0.975610,0.031494,0.001953,0.523193,31.541763
59598712,-4.695122,0.609756,-1.097561,0.032715,-0.000244,0.513672,31.635881
59599766,-4.817073,0.426829,-1.158537,0.036621,0.000488,0.515869,31.730000
59600797,-4.878049,0.609756,-1.036585,0.039062,0.001953,0.508301,31.682940
59601874,-4.817073,0.731707,-0.914634,0.038330,-0.004395,0.515381,31.588821
59602934,-4.878049,0.792683,-1.097561,0.032959,-0.004883,0.506104,31.588821
59603981,-4.878049,0.670732,-1.280488,0.033203,0.000244,0.519531,31.635881
59605020,-4.817073,0.548781,-1.219512,0.038330,-0.004150,0.508789,31.635881
59606050,-5.060976,0.548781,-0.975610,0.030518,0.001221,0.509521,31.588821
59607092,-5.182927,0.609756,-0.975610,0.036621,-0.003418,0.509521,31.682940
59608141,-5.121951,0.670732,-0.975610,0.035156,-0.000977,0.503174,31.588821
59609194,-4.939024,0.670732,-1.158537,0.034668,-0.000488,0.503174,31.541763
59610214,-4.817073,0.548781,-1.036585,0.034668,-0.004150,0.509521,31.635881
59611251,-4.817073,0.365854,-0.975610,0.041260,-0.001221,0.510742,31.635881
59612279,-4.878049,0.609756,-1.036585,0.039307,0.001465,0.512451,31.588821
59613312,-4.817073,0.853659,-0.975610,0.035889,-0.000732,0.511230,31.588821
59614329,-4.817073,0.792683,-1.036585,0.037842,-0.003418,0.513428,31.494705
59615364,-4.817073,0.731707,-1.158537,0.029053,0.002441,0.513184,31.588821
59616392,-4.817073,0.731707,-1.158537,0.032471,-0.004395,0.510254,31.682940
59617432,-4.817073,0.731707,-1.280488,0.031738,-0.000732,0.515869,31.541763
59618465,-5.000000,0.731707,-1.158537,0.034180,-0.003906,0.509033,31.541763
59619504,-4.939024,0.670732,-0.853659,0.038574,-0.003662,0.498535,31.541763
59620545,-4.817073,0.853659,-0.914634,0.037842,-0.000488,0.510254,31.588821
59621587,-4.817073,0.853659,-0.975610,0.035645,-0.004395,0.508057,31.588821
59622630,-4.878049,0.792683,-1.219512,0.034668,-0.004150,0.513184,31.588821
59623688,-4.939024,0.731707,-1.036585,0.034668,-0.000977,0.508789,31.541763
59624736,-4.817073,0.792683,-1.097561,0.036377,-0.005615,0.516357,31.635881
59625771,-4.817073,0.731707,-1.097561,0.033447,-0.005127,0.518066,31.541763
59626812,-4.878049,0.609756,-1.219512,0.029053,-0.002441,0.513672,31.494705
59627844,-5.000000,0.548781,-1.280488,0.036133,-0.002930,0.516113,31.682940
59628879,-5.060976,0.670732,-1.097561,0.042480,-0.005615,0.508057,31.588821
59629916,-4.756098,0.731707,-1.097561,0.035400,-0.001709,0.505859,31.682940
59630960,-4.695122,0.609756,-0.975610,0.031250,-0.002441,0.514893,31.635881
59632010,-4.756098,0.487805,-0.792683,0.032227,-0.006592,0.526123,31.541763
59633046,-4.817073,0.853659,-0.975610,0.034424,-0.005859,0.510498,31.588821
59634082,-4.939024,0.975610,-1.036585,0.035400,-0.005371,0.508301,31.588821
59635118,-4.939024,0.731707,-0.975610,0.039062,0.000000,0.509033,31.588821
59636213,-4.817073,0.609756,-0.914634,0.034912,0.002930,0.512939,31.541763
59637297,-4.817073,0.609756,-1.097561,0.033936,-0.000977,0.518799,31.494705
59638346,-4.756098,0.670732,-1.097561,0.031250,-0.002930,0.513428,31.494705
59639388,-4.939024,0.731707,-1.158537,0.031738,-0.000488,0.510742,31.682940
59640436,-4.817073,0.670732,-1.341463,0.033936,-0.003662,0.508301,31.635881
59641482,-4.817073,0.609756,-1.097561,0.032715,-0.002930,0.507812,31.635881
59642577,-5.000000,0.487805,-0.853659,0.034668,-0.004395,0.513672,31.588821
59643638,-5.000000,0.426829,-0.975610,0.036621,0.000977,0.520996,31.588821
59644680,-4.878049,0.609756,-0.914634,0.036133,0.000977,0.511230,31.635881
59645735,-4.756098,0.792683,-1.158537,0.037354,0.000977,0.505615,31.635881
59646759,-4.817073,0.792683,-0.914634,0.039307,0.000244,0.505615,31.541763
59647817,-4.817073,0.670732,-0.975610,0.036377,-0.000977,0.511475,31.588821
59648839,-4.817073,0.609756,-1.036585,0.033447,-0.000977,0.514648,31.588821
59649883,-5.000000,0.731707,-1.158537,0.032227,-0.004395,0.510010,31.588821
59650915,-5.121951,0.731707,-1.097561,0.031738,-0.000488,0.515137,31.588821
59651951,-4.878049,0.914634,-1.036585,0.038574,-0.000488,0.512207,31.635881
59652985,-4.756098,0.914634,-0.975610,0.036377,-0.001221,0.520020,31.541763
59654041,-4.817073,0.853659,-0.975610,0.038086,-0.005127,0.514160,31.588821
59655093,-4.939024,0.670732,-1.036585,0.037842,-0.001709,0.517822,31.588821
59656139,-4.939024,0.426829,-1.097561,0.036621,-0.001221,0.518066,31.588821
59657180,-4.939024,0.670732,-1.219512,0.034668,-0.000244,0.511963,31.541763
59658236,-5.000000,0.853659,-1.036585,0.033691,-0.004639,0.511963,31.635881
59659274,-5.060976,0.853659,-1.097561,0.038330,-0.003906,0.508545,31.682940
59660311,-5.182927,0.731707,-1.158537,0.036133,-0.006104,0.506836,31.588821
59661369,-5.060976,0.548781,-1.097561,0.031738,-0.003418,0.510986,31.588821
59662422,-5.060976,0.609756,-1.158537,0.029541,-0.002441,0.511719,31.635881
59663488,-5.000000,0.731707,-1.036585,0.036133,-0.004883,0.505615,31.635881
59664532,-4.878049,0.914634,-0.914634,0.035400,-0.003906,0.506348,31.588821
59665582,-4.817073,0.853659,-0.914634,0.031982,-0.004395,0.516357,31.682940
59666646,-4.756098,0.670732,-1.036585,0.030029,0.003174,0.518555,31.635881
59667682,-4.817073,0.731707,-1.097561,0.034424,0.001953,0.514893,31.635881
59668739,-4.939024,0.792683,-1.097561,0.035645,-0.001221,0.515625,31.635881
59669765,-4.817073,0.670732,-0.975610,0.036865,-0.005859,0.512695,31.588821
59670803,-4.817073,0.792683,-0.975610,0.036377,-0.005615,0.524658,31.588821
59671829,-4.939024,0.853659,-0.975610,0.040039,0.000977,0.517334,31.588821
59672865,-5.000000,0.670732,-0.975610,0.036865,0.000977,0.512207,31.588821
59673883,-5.000000,0.731707,-1.158537,0.036865,-0.001221,0.513672,31.588821
59674934,-5.000000,0.731707,-1.158537,0.031250,-0.005127,0.515625,31.541763
59675964,-4.878049,0.792683,-1.097561,0.030762,0.000488,0.516846,31.541763
59677002,-4.756098,0.609756,-0.914634,0.032959,0.006592,0.509277,31.635881
59678038,-5.000000,0.853659,-1.036585,0.034668,0.005127,0.511719,31.588821
59679091,-5.060976,0.914634,-0.975610,0.032959,0.000244,0.504639,31.588821
59680127,-4.939024,0.609756,-0.914634,0.033691,-0.002686,0.507080,31.588821
59681194,-4.878049,0.609756,-0.975610,0.039551,0.000977,0.512939,31.635881
59682233,-4.878049,0.670732,-0.853659,0.037842,-0.006104,0.511719,31.635881
59683287,-4.939024,0.670732,-1.158537,0.034668,-0.003662,0.509766,31.682940
59684345,-4.939024,0.731707,-1.219512,0.037842,-0.006592,0.509521,31.588821
59685403,-5.000000,0.670732,-1.219512,0.034424,-0.000977,0.513916,31.635881
59686447,-5.000000,0.792683,-1.036585,0.032227,-0.003906,0.510010,31.541763
59687493,-5.000000,0.792683,-1.097561,0.033691,0.001953,0.510986,31.635881
59688542,-4.817073,0.670732,-1.036585,0.038086,0.001465,0.508301,31.588821
59689585,-4.695122,0.731707,-0.914634,0.034668,-0.005127,0.517822,31.588821
59690635,-4.695122,0.731707,-1.036585,0.033691,-0.004150,0.511230,31.541763
59691673,-4.695122,0.609756,-1.097561,0.033447,-0.005615,0.510986,31.635881
59692717,-4.939024,0.853659,-1.219512,0.032959,-0.001953,0.512939,31.541763
59693743,-5.000000,0.914634,-0.975610,0.035156,-0.002441,0.515869,31.541763
59694789,-5.000000,0.731707,-1.097561,0.035889,-0.003662,0.517822,31.588821
59695811,-4.939024,0.609756,-1.036585,0.037598,0.000488,0.511230,31.588821
59696869,-4.817073,0.670732,-0.975610,0.033203,-0.001709,0.513916,31.588821
59697901,-4.756098,0.853659,-0.853659,0.036621,-0.004639,0.501465,31.588821
59698940,-5.000000,0.792683,-1.158537,0.035889,-0.003174,0.513428,31.635881
59699986,-4.817073,0.731707,-1.280488,0.037842,-0.002930,0.512207,31.635881
59701037,-4.573171,0.731707,-1.097561,0.035645,-0.006104,0.512695,31.588821
59702089,-4.634146,0.670732,-1.097561,0.039062,-0.007812,0.506104,31.588821
59703182,-4.939024,0.670732,-1.158537,0.036133,-0.005371,0.507812,31.635881
59704270,-5.060976,0.670732,-0.975610,0.034180,-0.001221,0.514404,31.494705
59705323,-5.060976,0.670732,-1.036585,0.034424,-0.002686,0.516846,31.588821
59706361,-4.939024,0.792683,-0.975610,0.035400,-0.002197,0.512939,31.588821
59707417,-4.817073,0.609756,-0.853659,0.034180,-0.002686,0.522217,31.730000
59708481,-4.695122,0.548781,-1.036585,0.034180,-0.001465,0.518555,31.541763
59709534,-4.878049,0.731707,-1.341463,0.041748,-0.002686,0.515869,31.588821
59710582,-5.060976,0.792683,-1.280488,0.039795,0.001709,0.510498,31.494705
59711633,-5.000000,0.670732,-1.158537,0.037598,-0.000244,0.515137,31.541763
59712673,-4.939024,0.487805,-1.219512,0.036133,-0.002686,0.517090,31.541763
59713705,-4.695122,0.487805,-1.097561,0.032959,-0.000977,0.520508,31.635881
59714736,-4.695122,0.609756,-1.036585,0.036133,0.000244,0.521240,31.541763
59715768,-4.817073,0.731707,-0.853659,0.036865,0.000000,0.511230,31.494705
59716789,-4.878049,0.914634,-0.914634,0.038818,-0.004150,0.511475,31.588821
59717827,-4.878049,0.670732,-1.036585,0.039062,0.000244,0.508789,31.588821
59718923,-4.817073,0.609756,-1.158537,0.031738,0.002197,0.520752,31.635881
59719987,-4.878049,0.487805,-0.914634,0.033691,-0.000244,0.509521,31.541763
59721023,-5.000000,0.487805,-1.036585,0.041260,0.001709,0.512207,31.682940
59722056,-4.817073,0.731707,-1.219512,0.041016,-0.002930,0.512207,31.588821
59723082,-4.817073,0.792683,-1.036585,0.034180,0.000488,0.510986,31.588821
59724126,-4.878049,0.792683,-0.975610,0.033203,0.003174,0.517090,31.635881
59725158,-4.878049,0.731707,-1.036585,0.034424,0.003174,0.518555,31.541763
59726193,-4.878049,0.731707,-0.914634,0.039795,0.000000,0.511475,31.635881
59727208,-4.939024,0.792683,-1.036585,0.035645,-0.011230,0.511719,31.635881
59728253,-5.060976,0.914634,-1.219512,0.039062,-0.001221,0.517090,31.682940
59729336,-5.060976,1.097561,-0.975610,0.040283,0.000488,0.511475,31.494705
59730420,-4.878049,0.853659,-1.097561,0.033691,0.000244,0.508057,31.635881
59731475,-4.939024,0.853659,-1.097561,0.036377,-0.002930,0.514648,31.541763
59732525,-5.060976,0.731707,-1.036585,0.034180,-0.003418,0.510742,31.682940
59733571,-4.939024,0.670732,-1.036585,0.038818,-0.004883,0.511230,31.682940
59734621,-4.939024,0.731707,-1.097561,0.039551,-0.003418,0.509277,31.541763
59735668,-4.939024,0.792683,-1.036585,0.037842,-0.003174,0.508301,31.541763
59736705,-4.878049,0.731707,-0.975610,0.037354,-0.006348,0.513184,31.635881
59737736,-4.878049,0.609756,-0.975610,0.034668,-0.009521,0.519287,31.541763
59738787,-4.878049,0.731707,-1.097561,0.033447,-0.007324,0.508301,31.494705
59739819,-4.817073,0.609756,-1.097561,0.032959,-0.000488,0.510742,31.588821
59740851,-4.756098,0.609756,-1.036585,0.033936,-0.001953,0.513916,31.682940
59741886,-4.817073,0.548781,-1.036585,0.039062,-0.003418,0.513184,31.682940
59742967,-5.000000,0.670732,-1.036585,0.035889,0.000488,0.512695,31.635881
59744040,-4.878049,0.670732,-1.036585,0.035889,-0.004395,0.513672,31.588821
59745089,-4.878049,0.731707,-1.036585,0.031006,0.000000,0.511475,31.682940
59746113,-4.939024,0.853659,-1.097561,0.034180,-0.002686,0.510742,31.635881
59747157,-5.000000,1.158537,-1.158537,0.032715,-0.004883,0.508545,31.635881
59748181,-5.000000,0.975610,-1.158537,0.036865,-0.003418,0.512939,31.635881
59749209,-4.939024,0.670732,-1.158537,0.036133,-0.006104,0.508789,31.635881
59750234,-5.060976,0.487805,-1.097561,0.029541,-0.001709,0.505615,31.541763
59751263,-5.060976,0.670732,-0.914634,0.029785,-0.002441,0.509521,31.682940
59752302,-5.000000,0.792683,-0.792683,0.031006,-0.000732,0.517090,31.588821
59753323,-4.878049,0.914634,-0.975610,0.035645,-0.000732,0.510498,31.588821
59754344,-4.817073,0.792683,-1.036585,0.036377,-0.004639,0.505615,31.588821
59755382,-4.817073,0.792683,-1.036585,0.039062,-0.001709,0.508789,31.635881
59756468,-4.939024,0.792683,-1.036585,0.037109,-0.005371,0.516846,31.635881
59757545,-4.878049,0.609756,-1.036585,0.034180,-0.007812,0.511475,31.682940
59758636,-4.878049,0.609756,-1.158537,0.030518,-0.000732,0.510254,31.635881
59759694,-4.939024,0.609756,-1.097561,0.037109,-0.003418,0.508789,31.541763
59760728,-5.000000,0.609756,-0.792683,0.037354,-0.002197,0.505615,31.541763
59761762,-4.939024,0.792683,-0.975610,0.036865,0.000488,0.502930,31.588821
59762788,-4.939024,0.853659,-1.036585,0.036865,-0.003906,0.520508,31.588821
59763825,-4.878049,0.609756,-1.158537,0.039307,0.000732,0.520752,31.682940
59764847,-4.939024,0.487805,-1.280488,0.037354,0.000244,0.517090,31.588821
59765884,-4.939024,0.731707,-0.975610,0.035156,-0.006348,0.516846,31.588821
59766917,-4.939024,0.670732,-0.853659,0.034424,-0.004395,0.510986,31.635881
59767958,-4.817073,0.609756,-1.097561,0.035889,-0.003906,0.510498,31.541763
59768993,-4.817073,0.670732,-1.097561,0.036377,-0.000732,0.508789,31.588821
59770035,-4.939024,0.670732,-0.975610,0.038086,-0.001465,0.509033,31.682940
59771078,-5.000000,0.792683,-1.097561,0.035156,0.000732,0.520508,31.588821
59772110,-4.878049,0.670732,-1.097561,0.030273,-0.004150,0.518799,31.635881
59773145,-4.878049,0.670732,-1.097561,0.035889,0.004150,0.520020,31.635881
59774180,-5.121951,0.792683,-0.914634,0.040771,-0.000488,0.518311,31.541763
59775209,-5.000000,0.670732,-1.097561,0.034668,-0.000732,0.508545,31.541763
59776232,-5.000000,0.609756,-1.097561,0.039062,-0.000977,0.510254,31.588821
59777304,-4.939024,0.487805,-1.219512,0.038086,-0.003662,0.506104,31.588821
59778361,-5.000000,0.487805,-1.036585,0.038818,-0.004639,0.512207,31.541763
59779402,-4.939024,0.670732,-0.792683,0.038086,-0.004639,0.512695,31.635881
59780449,-4.817073,0.853659,-0.792683,0.034180,-0.002930,0.509277,31.541763
59781483,-4.756098,0.792683,-1.036585,0.029785,-0.001953,0.518799,31.588821
59782529,-4.756098,0.792683,-1.097561,0.038574,-0.005371,0.510986,31.588821
59783569,-4.817073,0.792683,-1.219512,0.037598,-0.000977,0.514648,31.588821
59784632,-4.939024,0.731707,-1.219512,0.038574,-0.000977,0.515625,31.635881
59785676,-5.060976,0.731707,-1.280488,0.041748,-0.001953,0.514160,31.541763
59786713,-4.939024,0.670732,-1.036585,0.036621,-0.000488,0.513428,31.635881
59787748,-4.939024,0.853659,-1.158537,0.035645,-0.002930,0.503906,31.588821
59788781,-4.878049,0.792683,-1.097561,0.035400,-0.002930,0.510010,31.682940
59789808,-4.939024,0.731707,-0.975610,0.032715,0.002441,0.512451,31.588821
59790839,-5.000000,0.487805,-1.097561,0.033936,0.000000,0.514893,31.588821
59791846,-4.939024,0.548781,-1.402439,0.037842,0.000000,0.517822,31.682940
59792867,-4.878049,0.731707,-1.097561,0.043945,0.000488,0.518311,31.588821
59793902,-4.817073,0.670732,-0.792683,0.033447,0.002197,0.516602,31.635881
59794940,-4.695122,0.731707,-0.914634,0.035645,-0.001221,0.512207,31.635881
59795969,-4.756098,0.853659,-0.914634,0.036621,-0.003906,0.511963,31.541763
59797007,-4.878049,0.731707,-0.975610,0.036865,-0.001221,0.510254,31.682940
59798036,-4.756098,0.609756,-1.158537,0.036865,-0.001465,0.507080,31.588821
59799072,-4.878049,0.548781,-1.341463,0.040039,-0.001709,0.508301,31.588821
59800106,-4.939024,0.609756,-1.036585,0.038330,-0.002930,0.508301,31.635881
59801161,-4.878049,0.670732,-1.097561,0.033936,-0.003906,0.510010,31.635881
59802207,-4.817073,0.731707,-1.036585,0.033447,0.000000,0.512939,31.541763
59803227,-4.817073,0.731707,-0.853659,0.034424,-0.000732,0.512939,31.588821
59804258,-5.000000,0.548781,-0.975610,0.035156,0.000000,0.513916,31.588821
59805272,-5.000000,0.853659,-1.097561,0.038818,0.001221,0.514404,31.494705
59806302,-4.878049,0.731707,-1.158537,0.041748,-0.004150,0.508301,31.588821
59807339,-4.878049,0.609756,-1.158537,0.038330,-0.001221,0.521240,31.588821
59808373,-4.878049,0.731707,-0.914634,0.037598,-0.000977,0.514648,31.541763
59809437,-5.000000,0.792683,-1.097561,0.039307,-0.003906,0.506836,31.541763
59810467,-4.939024,0.670732,-1.219512,0.036865,-0.002441,0.511963,31.635881
59811517,-4.939024,0.548781,-0.975610,0.034912,-0.003418,0.504883,31.494705
59812568,-4.939024,0.487805,-0.914634,0.033936,-0.002441,0.503662,31.494705
59813616,-5.060976,0.670732,-0.914634,0.031494,-0.000977,0.504395,31.635881
59814649,-5.000000,0.792683,-1.219512,0.033447,-0.000977,0.515381,31.730000
59815690,-4.878049,0.548781,-1.219512,0.035889,-0.005127,0.512939,31.541763
59816715,-4.878049,0.548781,-1.097561,0.034424,-0.005371,0.515137,31.541763
59817751,-4.939024,0.731707,-1.097561,0.035156,-0.000488,0.506348,31.588821
59818784,-4.939024,0.792683,-1.280488,0.035889,0.000000,0.506104,31.682940
59819813,-4.878049,0.731707,-1.280488,0.041748,0.001465,0.511719,31.588821
59820842,-4.939024,0.731707,-1.158537,0.035400,0.001465,0.514160,31.494705
59821879,-5.060976,0.670732,-1.036585,0.034180,-0.000244,0.514648,31.588821
59822905,-5.060976,0.609756,-1.158537,0.038574,-0.003418,0.524658,31.635881
59823960,-5.060976,0.914634,-1.097561,0.037598,-0.002441,0.512695,31.635881
59824991,-4.939024,0.853659,-0.853659,0.037598,-0.003418,0.509766,31.588821
59826030,-4.817073,0.731707,-1.036585,0.032715,-0.000732,0.510010,31.588821
59827056,-4.756098,0.853659,-1.036585,0.033447,-0.006836,0.515381,31.494705
59828117,-4.817073,0.731707,-0.975610,0.034180,-0.008789,0.504150,31.541763
59829154,-4.939024,0.670732,-0.975610,0.037598,0.000244,0.503418,31.635881
59830190,-4.878049,0.731707,-0.975610,0.033936,-0.003906,0.516357,31.635881
59831219,-4.878049,0.853659,-0.975610,0.036133,-0.003418,0.518311,31.588821
59832253,-4.939024,0.609756,-0.914634,0.032959,0.001221,0.515381,31.588821
59833280,-4.939024,0.426829,-1.036585,0.030029,-0.000488,0.514404,31.682940
59834336,-4.817073,0.609756,-1.097561,0.033691,-0.002686,0.506836,31.588821
59835371,-4.817073,0.792683,-0.914634,0.035889,0.000977,0.514160,31.541763
59836415,-5.000000,0.731707,-1.097561,0.034668,-0.001465,0.519043,31.635881
59837445,-5.000000,0.914634,-1.158537,0.032715,0.000977,0.515137,31.635881
59838484,-4.878049,0.914634,-1.097561,0.034668,-0.002686,0.515137,31.682940
59839521,-5.000000,0.914634,-0.975610,0.035400,-0.001465,0.513428,31.588821
59840563,-5.121951,0.731707,-0.975610,0.032471,0.000000,0.505371,31.588821
59841577,-5.060976,0.487805,-0.975610,0.027832,-0.001953,0.515625,31.588821
59842631,-4.939024,0.243902,-0.914634,0.032715,0.000977,0.513916,31.541763
59843678,-4.817073,0.426829,-0.853659,0.036133,0.001465,0.510254,31.635881
59844707,-4.817073,0.609756,-0.914634,0.035156,0.000977,0.504883,31.635881
59845755,-4.756098,0.609756,-0.975610,0.033203,0.002686,0.504150,31.588821
59846792,-4.878049,0.548781,-1.097561,0.035645,-0.003906,0.510498,31.682940
59847826,-4.817073,0.731707,-1.219512,0.034668,-0.004883,0.509033,31.682940
59848853,-4.756098,0.731707,-1.097561,0.036621,-0.003418,0.500488,31.588821
59849903,-4.756098,0.548781,-0.975610,0.039795,-0.004150,0.516846,31.635881
59850935,-4.817073,0.487805,-0.914634,0.038818,-0.003906,0.505859,31.635881
59851971,-4.817073,0.670732,-1.036585,0.035156,-0.003418,0.505859,31.588821
59853003,-4.939024,0.975610,-0.853659,0.031982,-0.006592,0.510986,31.588821
59854049,-5.000000,1.097561,-1.036585,0.032227,-0.003418,0.513916,31.682940
59855077,-5.000000,0.853659,-1.036585,0.033936,-0.001221,0.515625,31.588821
59856113,-5.060976,0.670732,-0.975610,0.034180,-0.006348,0.506348,31.635881
59857156,-4.878049,0.731707,-1.158537,0.037354,-0.002197,0.506104,31.635881
59858191,-4.817073,0.792683,-1.341463,0.039795,-0.000244,0.506592,31.635881
59859224,-4.878049,0.792683,-1.158537,0.035400,-0.002930,0.512939,31.588821
59860256,-4.939024,0.853659,-0.914634,0.034668,0.000244,0.512207,31.588821
59861287,-5.000000,0.853659,-0.975610,0.035889,-0.000488,0.512695,31.682940
59862330,-5.000000,0.792683,-1.219512,0.035645,-0.005371,0.514648,31.635881
59863361,-4.817073,0.731707,-1.097561,0.030029,-0.002441,0.522461,31.541763
59864406,-4.695122,0.609756,-1.036585,0.029785,-0.003418,0.516846,31.635881
59865448,-4.756098,0.731707,-1.158537,0.030273,-0.002686,0.507324,31.635881
59866506,-4.695122,0.853659,-1.158537,0.027588,-0.005127,0.507812,31.588821
59867591,-4.756098,0.792683,-1.158537,0.034668,0.000000,0.510986,31.635881
59868640,-4.939024,0.670732,-1.097561,0.036865,-0.002441,0.516602,31.635881
59869706,-5.000000,0.731707,-0.975610,0.038086,-0.003418,0.516602,31.635881
59870732,-5.121951,0.731707,-0.914634,0.034180,0.004150,0.512451,31.682940
59871781,-5.000000,0.670732,-0.914634,0.032227,-0.002197,0.510986,31.494705
59872813,-4.939024,0.548781,-0.975610,0.032471,0.000732,0.506836,31.588821
59873857,-4.878049,0.487805,-0.914634,0.036621,0.000732,0.513916,31.588821
59874896,-4.817073,0.792683,-1.158537,0.036133,-0.001465,0.507812,31.541763
59875977,-4.817073,0.853659,-1.341463,0.036865,-0.002686,0.509277,31.588821
59877056,-4.878049,0.975610,-1.219512,0.036621,-0.002686,0.506348,31.682940
59878121,-5.060976,0.914634,-1.158537,0.033691,-0.006104,0.507812,31.635881
59879199,-5.060976,0.792683,-0.975610,0.040039,-0.005127,0.508545,31.682940
59880249,-4.817073,0.792683,-0.914634,0.037598,-0.003906,0.514404,31.588821
59881296,-4.756098,0.792683,-1.219512,0.033447,-0.000732,0.513428,31.588821
59882330,-4.939024,0.975610,-1.097561,0.034180,0.004150,0.501709,31.635881
59883374,-5.000000,0.853659,-0.731707,0.032959,-0.001709,0.509277,31.541763
59884419,-5.000000,0.731707,-0.914634,0.031250,0.000488,0.514404,31.541763
59885459,-5.060976,0.487805,-1.097561,0.028320,-0.002930,0.520264,31.588821
59886500,-5.000000,0.548781,-1.036585,0.029053,-0.003662,0.506592,31.588821
59887542,-5.060976,0.731707,-1.097561,0.034180,-0.003906,0.507324,31.588821
59888585,-5.060976,0.731707,-1.036585,0.037109,-0.000244,0.506348,31.541763
59889630,-5.000000,0.731707,-1.097561,0.037842,-0.000244,0.507080,31.635881
59890667,-4.878049,0.609756,-1.219512,0.036621,-0.003418,0.507324,31.541763
59891704,-4.878049,0.792683,-1.036585,0.032959,-0.004883,0.507080,31.588821
59892729,-5.060976,0.975610,-1.036585,0.034424,-0.003174,0.509277,31.588821
59893778,-5.243903,0.914634,-0.914634,0.036377,-0.004395,0.512207,31.682940
59894808,-4.878049,0.731707,-0.975610,0.034668,0.000000,0.514404,31.494705
59895822,-4.756098,0.731707,-1.158537,0.034668,0.000244,0.505371,31.682940
59896854,-4.756098,0.792683,-1.219512,0.034180,-0.003662,0.504883,31.494705
59897899,-4.939024,0.731707,-1.097561,0.035156,-0.000244,0.514648,31.541763
59898930,-5.000000,0.792683,-1.280488,0.036377,-0.004395,0.516357,31.541763
59899962,-4.939024,0.792683,-1.158537,0.036377,-0.001709,0.506104,31.588821
59901005,-5.000000,0.914634,-0.853659,0.038330,-0.001953,0.508057,31.588821
59902037,-4.878049,0.853659,-0.792683,0.034668,-0.000977,0.520020,31.588821
59903062,-4.756098,0.792683,-1.097561,0.038818,-0.005371,0.515625,31.682940
59904105,-4.756098,0.731707,-1.219512,0.038086,0.000488,0.508301,31.541763
59905139,-4.878049,0.792683,-1.219512,0.033936,-0.004639,0.504639,31.541763
59906179,-5.000000,0.731707,-1.341463,0.036377,-0.001953,0.505371,31.635881
59907215,-5.000000,0.792683,-1.158537,0.036621,-0.002441,0.505127,31.588821
59908247,-4.939024,0.731707,-1.036585,0.038330,0.000977,0.514648,31.588821
59909292,-4.939024,0.731707,-1.036585,0.038574,0.000488,0.515381,31.588821
59910328,-5.000000,0.670732,-1.036585,0.031982,-0.008301,0.518066,31.541763
59911361,-5.000000,0.548781,-1.036585,0.036865,-0.008057,0.513672,31.541763
59912408,-4.756098,0.670732,-1.036585,0.039795,0.000977,0.511230,31.635881
59913453,-4.878049,0.731707,-1.097561,0.040283,-0.003906,0.514404,31.588821
59914499,-5.121951,0.975610,-0.975610,0.039307,-0.006592,0.516602,31.588821
59915559,-5.121951,1.036585,-1.097561,0.031982,-0.001953,0.515137,31.588821
59916607,-5.000000,0.853659,-0.975610,0.032715,-0.002441,0.514648,31.635881
59917649,-4.817073,0.670732,-1.097561,0.032715,-0.000732,0.518311,31.635881
59918687,-4.878049,0.670732,-1.036585,0.034912,-0.003662,0.515137,31.635881
59919721,-5.000000,0.853659,-1.280488,0.036865,0.002441,0.511475,31.588821
59920744,-5.000000,0.975610,-1.158537,0.037842,0.000977,0.515381,31.682940
59921779,-5.000000,1.036585,-1.219512,0.036133,-0.003418,0.509277,31.682940
59922800,-4.939024,0.914634,-1.219512,0.036133,-0.005859,0.515381,31.588821
59923836,-5.000000,0.731707,-1.036585,0.030762,-0.004883,0.508789,31.682940
59924864,-5.000000,0.609756,-0.792683,0.036133,0.003906,0.506592,31.635881
59925908,-5.000000,0.609756,-1.036585,0.037109,0.000732,0.512451,31.541763
59926950,-4.939024,0.853659,-1.219512,0.040527,-0.002197,0.510010,31.588821
59927986,-4.817073,0.792683,-0.914634,0.037354,-0.002930,0.508301,31.588821
59929013,-4.817073,0.731707,-0.975610,0.035156,-0.000488,0.512207,31.588821
59930048,-4.939024,0.731707,-1.036585,0.036865,0.001465,0.515869,31.682940
59931077,-5.000000,0.853659,-0.731707,0.036133,-0.000488,0.505371,31.635881
59932114,-4.939024,0.975610,-0.914634,0.033691,0.001221,0.513428,31.635881
59933151,-4.878049,0.792683,-1.158537,0.032715,-0.004883,0.510254,31.635881
59934187,-4.878049,0.670732,-1.158537,0.035645,-0.007324,0.509521,31.588821
59935223,-4.817073,0.670732,-1.036585,0.037842,-0.006592,0.513916,31.588821
59936259,-5.000000,0.914634,-0.975610,0.031982,-0.001221,0.511963,31.588821
59937291,-5.000000,0.975610,-0.914634,0.034180,-0.002930,0.508301,31.588821
59938320,-4.817073,0.792683,-1.036585,0.036621,-0.000488,0.503662,31.635881
59939357,-4.939024,0.731707,-1.158537,0.031982,-0.001465,0.507080,31.635881
59940408,-4.939024,0.731707,-0.975610,0.036621,-0.000977,0.509277,31.541763
59941453,-4.939024,0.731707,-0.914634,0.037598,-0.004395,0.512939,31.682940
59942496,-4.878049,0.609756,-0.853659,0.033203,-0.005371,0.523438,31.494705
59943606,-4.939024,0.609756,-1.036585,0.035645,-0.001465,0.515625,31.635881
59944675,-4.878049,0.670732,-0.914634,0.037354,-0.002441,0.505615,31.635881
59945714,-4.939024,0.731707,-0.975610,0.037354,-0.005371,0.501465,31.494705
59946747,-4.939024,0.914634,-1.036585,0.037109,-0.003174,0.509766,31.682940
59947773,-4.878049,0.670732,-1.097561,0.036865,-0.003906,0.519531,31.682940
59948826,-5.000000,0.426829,-1.280488,0.037598,-0.001465,0.513184,31.682940
59949843,-4.939024,0.243902,-1.280488,0.041016,-0.004639,0.508789,31.588821
59950878,-4.939024,0.548781,-0.914634,0.035156,-0.000488,0.503906,31.635881
59951909,-4.817073,0.914634,-1.036585,0.037842,-0.005371,0.503662,31.635881
59952950,-4.878049,1.097561,-1.280488,0.036133,-0.002686,0.511230,31.588821
59953979,-4.939024,0.914634,-1.280488,0.038574,-0.002686,0.511475,31.588821
59955033,-4.939024,0.548781,-1.036585,0.036133,-0.000488,0.520752,31.588821
59956061,-4.878049,0.426829,-0.670732,0.035400,0.001709,0.507812,31.447645
59957144,-4.939024,0.792683,-0.853659,0.035156,-0.002441,0.513672,31.635881
59958202,-5.000000,0.975610,-1.158537,0.033447,-0.004150,0.514648,31.682940
59959237,-4.939024,1.036585,-1.097561,0.036377,-0.008545,0.520020,31.588821
59960280,-4.939024,0.792683,-1.036585,0.032227,-0.007812,0.514893,31.588821
59961354,-4.939024,0.670732,-0.975610,0.033936,-0.007324,0.513672,31.635881
59962417,-4.939024,0.731707,-1.036585,0.034424,0.000000,0.512207,31.635881
59963456,-4.939024,0.914634,-0.914634,0.031494,-0.002930,0.509033,31.588821
59964506,-5.000000,0.914634,-0.975610,0.033691,0.001709,0.515625,31.588821
59965546,-5.000000,0.670732,-1.097561,0.037109,0.002441,0.517822,31.588821
59966588,-4.878049,0.548781,-1.036585,0.036621,-0.006348,0.517578,31.541763
59967650,-4.756098,0.609756,-1.158537,0.035400,-0.003418,0.517822,31.541763
59968688,-4.695122,0.731707,-1.097561,0.031494,-0.002197,0.517822,31.682940
59969725,-4.695122,0.853659,-0.975610,0.034180,-0.008057,0.507324,31.588821
59970751,-4.878049,0.792683,-1.097561,0.035645,0.000000,0.511719,31.588821
59971773,-4.939024,0.731707,-1.158537,0.037354,-0.002441,0.505371,31.588821
59972803,-5.060976,0.609756,-1.097561,0.032959,-0.006104,0.509033,31.682940
59973838,-5.060976,0.609756,-0.975610,0.034180,-0.002441,0.516113,31.588821
59974867,-4.878049,0.670732,-0.975610,0.036133,-0.000977,0.508301,31.541763
59975903,-4.817073,0.609756,-0.853659,0.036133,-0.002441,0.501953,31.635881
59976935,-4.817073,0.609756,-1.036585,0.037109,-0.006836,0.510986,31.588821
59977972,-4.817073,0.487805,-1.036585,0.035889,-0.005859,0.520264,31.588821
59979004,-4.939024,0.548781,-0.914634,0.036621,-0.000488,0.517090,31.588821
59980058,-5.121951,0.792683,-0.914634,0.038086,0.002197,0.510254,31.635881
59981092,-5.121951,0.914634,-1.036585,0.035156,-0.003418,0.508545,31.635881
59982137,-5.000000,0.914634,-1.219512,0.032227,0.001465,0.511475,31.635881
59983164,-4.817073,0.914634,-1.097561,0.035889,-0.003174,0.520020,31.635881
59984202,-4.817073,0.792683,-1.097561,0.033691,-0.001953,0.515625,31.682940
59985240,-4.817073,0.609756,-0.853659,0.034912,0.001221,0.517822,31.494705
59986276,-4.878049,0.609756,-0.975610,0.040283,-0.002441,0.512939,31.588821
59987317,-4.939024,0.853659,-1.036585,0.038330,-0.001465,0.513428,31.541763
59988352,-4.939024,0.914634,-1.036585,0.036865,0.000732,0.505371,31.635881
59989396,-4.939024,0.792683,-0.975610,0.033691,0.000244,0.509277,31.635881
59990454,-4.878049,0.670732,-0.792683,0.031982,-0.000977,0.518311,31.682940
59991497,-4.817073,0.548781,-1.097561,0.037109,-0.000977,0.519531,31.588821
59992560,-4.878049,0.731707,-1.158537,0.038086,-0.002686,0.509766,31.635881
59993604,-4.878049,0.853659,-0.975610,0.038330,-0.004639,0.510010,31.635881
59994647,-4.878049,0.853659,-0.975610,0.033447,-0.000488,0.509521,31.730000
59995687,-4.817073,0.731707,-0.853659,0.036621,-0.002441,0.514160,31.682940
59996721,-4.878049,0.487805,-0.975610,0.035889,-0.001953,0.508789,31.588821
59997746,-5.060976,0.670732,-1.158537,0.036377,-0.004639,0.508301,31.682940
59998790,-5.000000,0.731707,-1.219512,0.032959,-0.001465,0.512939,31.494705
59999810,-4.817073,0.609756,-1.158537,0.035156,0.005615,0.513428,31.588821
60000846,-4.817073,0.731707,-1.036585,0.038086,-0.006836,0.516357,31.635881
60001889,-5.000000,0.670732,-0.914634,0.032471,-0.000244,0.518066,31.635881
60002921,-5.060976,0.487805,-0.914634,0.033691,0.000732,0.519531,31.588821
60003947,-5.000000,0.609756,-0.914634,0.037598,-0.002686,0.506104,31.588821
60004978,-4.939024,0.792683,-1.036585,0.034180,-0.001221,0.506104,31.588821
60006019,-4.878049,0.670732,-1.219512,0.033447,-0.005127,0.513916,31.682940
60007056,-4.817073,0.670732,-1.158537,0.034912,-0.002686,0.515625,31.541763
60008090,-4.939024,0.792683,-1.219512,0.035400,-0.003906,0.513672,31.635881
60009134,-4.939024,0.792683,-1.036585,0.035156,-0.003662,0.521484,31.635881
60010170,-4.878049,0.670732,-1.036585,0.035889,-0.001709,0.508057,31.588821
60011203,-4.939024,0.670732,-1.097561,0.033447,0.002686,0.511475,31.588821
60012239,-4.939024,0.670732,-0.975610,0.034668,0.000488,0.510986,31.682940
60013281,-4.939024,0.609756,-0.792683,0.028564,-0.001465,0.510986,31.588821
60014318,-5.060976,0.548781,-0.853659,0.039307,0.001465,0.518799,31.730000
60015349,-4.817073,0.731707,-1.036585,0.036133,-0.002930,0.511719,31.635881
60016402,-4.756098,0.792683,-1.158537,0.037109,-0.004395,0.516602,31.635881
60017444,-4.878049,0.914634,-1.097561,0.037842,-0.000732,0.511475,31.588821
60018485,-4.939024,0.975610,-1.158537,0.033203,-0.003174,0.508789,31.588821
60019527,-4.878049,0.792683,-1.158537,0.036377,-0.003662,0.515869,31.494705
60020572,-4.878049,0.731707,-1.036585,0.035156,-0.003906,0.512451,31.635881
60021619,-4.878049,0.914634,-0.975610,0.035400,-0.010010,0.511230,31.635881
60022673,-4.817073,1.158537,-1.036585,0.035645,-0.006836,0.503906,31.588821
60023698,-4.878049,0.975610,-1.097561,0.036133,-0.003174,0.513916,31.588821
60024747,-4.939024,0.548781,-1.219512,0.034912,0.002930,0.509033,31.494705
60025778,-4.939024,0.487805,-1.158537,0.034180,-0.002930,0.505615,31.588821
60026809,-5.121951,0.548781,-0.975610,0.031006,-0.006348,0.510742,31.588821
60027854,-5.121951,0.914634,-1.036585,0.034668,0.001221,0.507568,31.541763
60028898,-5.000000,0.792683,-1.097561,0.034180,-0.000977,0.502441,31.541763
60029924,-4.878049,0.670732,-0.914634,0.033936,-0.001953,0.508057,31.682940
60030958,-4.817073,0.670732,-0.853659,0.034180,-0.002197,0.516113,31.588821
60031988,-5.000000,0.792683,-0.975610,0.033936,-0.001465,0.520020,31.682940
60033023,-5.121951,0.975610,-0.975610,0.034668,0.000488,0.505371,31.588821
60034049,-5.000000,0.975610,-0.975610,0.037842,-0.004150,0.512451,31.541763
60035105,-4.939024,0.792683,-1.036585,0.034180,-0.002930,0.521240,31.635881
60036152,-5.000000,0.792683,-1.158537,0.036133,-0.003174,0.512207,31.588821
60037184,-4.939024,0.792683,-1.341463,0.035400,-0.001465,0.504883,31.588821
60038219,-4.878049,0.853659,-1.341463,0.033447,0.001221,0.503662,31.588821
60039272,-4.756098,0.914634,-0.975610,0.031006,-0.000732,0.516602,31.588821
60040303,-4.817073,0.609756,-0.975610,0.034180,-0.003174,0.510498,31.635881
60041341,-5.000000,0.731707,-1.158537,0.031738,-0.004395,0.503906,31.635881
60042380,-5.060976,0.853659,-1.341463,0.031494,0.001221,0.512451,31.635881
60043426,-5.000000,0.914634,-1.219512,0.030762,-0.002197,0.509277,31.588821
60044466,-4.939024,0.853659,-1.097561,0.032959,-0.007812,0.517578,31.682940
60045554,-5.000000,0.670732,-1.036585,0.036621,-0.004883,0.515869,31.635881
60046615,-4.939024,0.792683,-1.158537,0.035400,0.002197,0.512451,31.635881
60047675,-4.878049,0.853659,-1.097561,0.035400,0.003418,0.513428,31.588821
60048705,-4.817073,0.853659,-1.219512,0.035889,0.002686,0.511475,31.682940
60049736,-4.817073,0.731707,-1.158537,0.037842,0.004883,0.516113,31.494705
60050776,-5.060976,0.792683,-0.914634,0.036865,0.000977,0.510742,31.588821
60051822,-5.060976,0.792683,-1.036585,0.031738,-0.006836,0.517578,31.541763
60052853,-4.878049,0.670732,-1.097561,0.037109,-0.004639,0.518066,31.635881
60053889,-4.756098,0.670732,-1.097561,0.035645,-0.002686,0.517578,31.635881
60054921,-4.817073,0.731707,-1.219512,0.039551,-0.005615,0.510010,31.588821
60055957,-4.939024,0.548781,-1.097561,0.041748,-0.002197,0.508789,31.682940
60056988,-5.000000,0.609756,-1.036585,0.033203,0.000977,0.510010,31.588821
60058019,-4.939024,0.731707,-1.036585,0.029785,0.000977,0.504150,31.635881
60059048,-5.000000,0.670732,-1.158537,0.027100,-0.002930,0.516602,31.635881
60060103,-5.000000,0.670732,-0.975610,0.032227,-0.000244,0.520264,31.635881
60061132,-4.878049,0.670732,-0.975610,0.033203,-0.000488,0.519043,31.541763
60062165,-4.878049,0.548781,-1.097561,0.041260,-0.003662,0.517334,31.494705
60063197,-4.817073,0.548781,-1.219512,0.038086,-0.002441,0.513916,31.588821
60064235,-4.939024,0.731707,-1.097561,0.041992,-0.001953,0.512451,31.682940
60065274,-4.878049,0.914634,-1.036585,0.035645,0.004395,0.510498,31.541763
60066310,-4.817073,0.609756,-0.975610,0.034668,0.002441,0.517822,31.635881
60067347,-5.000000,0.487805,-1.036585,0.031006,-0.003906,0.510254,31.635881
60068397,-5.060976,0.670732,-1.036585,0.029053,-0.005371,0.509033,31.588821
60069439,-5.060976,0.731707,-1.036585,0.035645,-0.002441,0.516846,31.588821
60070484,-4.939024,0.853659,-1.036585,0.037842,-0.004395,0.515381,31.588821
60071539,-4.817073,0.853659,-1.036585,0.039307,-0.004639,0.517822,31.635881
60072601,-4.878049,0.792683,-1.097561,0.036865,-0.002197,0.509033,31.635881
60073645,-4.817073,0.609756,-1.158537,0.035889,-0.000244,0.512695,31.682940
60074686,-4.939024,0.487805,-1.219512,0.032959,-0.001709,0.513184,31.588821
60075717,-5.000000,0.670732,-1.036585,0.037109,-0.003906,0.519287,31.588821
60076742,-5.060976,0.670732,-0.975610,0.035400,0.001953,0.515869,31.588821
60077777,-5.000000,0.670732,-1.036585,0.034912,0.005371,0.510010,31.588821
60078796,-4.939024,0.731707,-1.158537,0.038574,0.004150,0.512451,31.588821
60079833,-4.634146,0.853659,-1.158537,0.041504,-0.000732,0.510010,31.635881
60080859,-4.634146,0.670732,-1.036585,0.042480,0.001221,0.513428,31.635881
60081907,-4.817073,0.609756,-1.036585,0.038818,-0.001953,0.508545,31.588821
60082939,-4.939024,0.670732,-0.975610,0.038086,-0.006348,0.509521,31.588821
60083973,-5.060976,0.731707,-0.914634,0.038818,-0.008057,0.522949,31.588821
60085013,-4.878049,0.548781,-1.036585,0.033936,0.001221,0.517334,31.541763
60086047,-4.878049,0.548781,-1.097561,0.035156,-0.000244,0.511719,31.635881
60087101,-4.695122,0.548781,-0.975610,0.030273,-0.001953,0.512939,31.635881
60088152,-4.634146,0.548781,-0.914634,0.034424,0.000977,0.504883,31.588821
60089184,-4.878049,0.609756,-1.219512,0.037354,0.001953,0.501953,31.588821
60090221,-4.939024,0.670732,-1.097561,0.039551,0.003418,0.502930,31.682940
60091273,-4.939024,0.792683,-1.097561,0.037842,-0.000488,0.510742,31.635881
60092326,-4.939024,0.487805,-0.914634,0.039551,0.000244,0.513672,31.635881
60093361,-4.939024,0.548781,-0.914634,0.039551,-0.002441,0.515137,31.635881
60094412,-4.939024,0.731707,-0.914634,0.032959,-0.001221,0.509766,31.682940
60095455,-4.878049,0.609756,-0.853659,0.035400,-0.000977,0.516113,31.588821
60096498,-4.817073,0.731707,-0.792683,0.034668,-0.002930,0.511719,31.588821
60097541,-4.817073,0.670732,-0.853659,0.036133,0.000488,0.510742,31.541763
60098581,-5.060976,0.548781,-1.097561,0.035645,-0.005371,0.512695,31.635881
60099630,-5.000000,0.731707,-1.097561,0.033936,-0.003906,0.516113,31.682940
60100670,-4.939024,0.731707,-0.975610,0.032959,-0.000244,0.510742,31.494705
60101704,-4.878049,0.853659,-0.914634,0.029785,-0.001221,0.511719,31.682940
60102728,-4.939024,0.792683,-1.097561,0.036133,-0.002441,0.508545,31.682940
60103767,-4.878049,0.731707,-1.036585,0.037109,-0.003174,0.510742,31.682940
60104797,-4.939024,0.609756,-1.097561,0.035400,0.000000,0.519531,31.682940
60105814,-5.000000,0.548781,-0.975610,0.040039,0.000977,0.505859,31.541763
60106842,-4.878049,0.609756,-0.975610,0.034912,0.003418,0.509521,31.541763
60107894,-4.817073,0.914634,-0.975610,0.034912,0.000732,0.517334,31.588821
60108921,-4.878049,0.914634,-0.975610,0.036865,0.003174,0.510498,31.682940
60109954,-4.939024,0.792683,-1.097561,0.033691,0.000244,0.512695,31.682940
60110994,-4.939024,0.670732,-1.036585,0.039307,-0.001953,0.515137,31.588821
60112030,-4.756098,0.731707,-1.158537,0.034912,-0.001221,0.516113,31.541763
60113061,-4.756098,0.853659,-1.219512,0.030029,-0.002930,0.511719,31.635881
60114104,-4.878049,0.914634,-1.036585,0.035400,-0.001465,0.511230,31.541763
60115153,-4.939024,0.914634,-0.914634,0.032471,-0.001953,0.513184,31.588821
60116192,-5.000000,0.914634,-0.975610,0.033936,-0.003418,0.517090,31.588821
60117222,-4.939024,0.792683,-1.036585,0.036133,-0.007324,0.507812,31.588821
60118306,-4.939024,0.548781,-0.914634,0.032959,-0.003418,0.506348,31.635881
60119385,-4.817073,0.548781,-1.097561,0.038086,-0.003662,0.509766,31.588821
60120438,-4.817073,0.792683,-1.036585,0.036865,-0.002197,0.513184,31.682940
60121494,-4.878049,0.975610,-0.975610,0.035400,0.001709,0.510742,31.588821
60122537,-4.939024,0.975610,-0.914634,0.032715,-0.001221,0.514648,31.541763
60123581,-5.000000,0.609756,-1.158537,0.030762,0.000488,0.517578,31.635881
60124636,-4.817073,0.548781,-1.280488,0.027344,-0.000244,0.513672,31.682940
60125672,-4.939024,0.487805,-1.219512,0.030029,-0.008301,0.507324,31.682940
60126723,-4.756098,0.792683,-1.158537,0.031982,-0.005615,0.509766,31.588821
60127771,-4.756098,0.853659,-1.036585,0.031982,-0.002197,0.508545,31.682940
60128810,-4.817073,0.731707,-0.975610,0.030518,-0.001221,0.507812,31.541763
60129878,-4.817073,0.548781,-1.158537,0.035156,-0.003174,0.514893,31.588821
60130936,-4.817073,0.609756,-1.097561,0.034912,-0.001953,0.511719,31.588821
60131994,-4.878049,0.792683,-1.097561,0.038818,-0.005859,0.514893,31.588821
60133031,-4.756098,0.914634,-1.219512,0.033936,-0.004639,0.512695,31.541763
60134062,-4.939024,0.731707,-1.219512,0.033691,-0.002197,0.515625,31.635881
60135128,-5.060976,0.853659,-1.158537,0.031738,0.002686,0.515381,31.588821
60136161,-5.060976,0.914634,-1.158537,0.036133,0.000732,0.519287,31.588821
60137191,-5.060976,1.036585,-0.853659,0.033936,-0.000977,0.505371,31.682940
60138220,-4.939024,0.792683,-0.914634,0.038330,-0.002197,0.509766,31.588821
60139262,-4.939024,0.609756,-1.036585,0.037842,-0.004150,0.513916,31.635881
60140297,-5.000000,0.609756,-1.097561,0.030029,-0.004150,0.507568,31.635881
60141343,-4.939024,0.609756,-0.975610,0.031494,-0.006592,0.517822,31.635881
60142397,-4.878049,0.670732,-0.914634,0.036621,-0.001465,0.510254,31.682940
60143433,-4.939024,0.670732,-0.914634,0.039551,-0.002686,0.507324,31.588821
60144471,-5.000000,0.670732,-0.914634,0.034180,0.000000,0.508301,31.588821
60145489,-5.000000,0.731707,-1.097561,0.032471,-0.004639,0.505859,31.588821
60146528,-5.000000,0.670732,-1.036585,0.031494,-0.004639,0.503418,31.635881
60147563,-4.817073,0.670732,-0.914634,0.035400,-0.002686,0.503662,31.730000
60148602,-4.878049,0.731707,-0.975610,0.034668,0.000732,0.506836,31.635881
60149641,-4.878049,0.609756,-1.097561,0.036621,0.000732,0.510742,31.588821
60150683,-5.000000,0.670732,-0.975610,0.031250,0.001465,0.513672,31.588821
60151707,-5.000000,0.670732,-0.975610,0.029785,-0.000977,0.517334,31.682940
60152732,-5.000000,0.792683,-0.914634,0.031250,-0.004883,0.522217,31.588821
60153770,-4.939024,0.853659,-0.792683,0.035400,-0.004150,0.512695,31.588821
60154800,-4.695122,0.792683,-1.097561,0.034668,-0.000488,0.512207,31.635881
60155834,-4.695122,0.792683,-1.158537,0.036621,0.000732,0.517090,31.635881
60156862,-4.817073,0.792683,-1.036585,0.036133,-0.000977,0.511230,31.635881
60157907,-5.000000,0.731707,-1.280488,0.038086,-0.004150,0.512207,31.588821
60158937,-4.878049,0.731707,-1.219512,0.036377,-0.002930,0.512695,31.682940
60159975,-4.695122,0.731707,-1.097561,0.031250,-0.000244,0.513916,31.588821
60161021,-4.756098,0.731707,-1.158537,0.036133,-0.000977,0.515137,31.541763
60162056,-4.756098,0.670732,-1.036585,0.035400,-0.005127,0.508789,31.635881
60163086,-4.817073,0.731707,-0.792683,0.032471,0.005127,0.508789,31.635881
60164128,-4.756098,0.670732,-0.853659,0.031006,-0.001709,0.510010,31.588821
60165160,-4.817073,0.670732,-1.036585,0.034668,-0.000977,0.513916,31.588821
60166193,-5.060976,0.670732,-1.280488,0.031982,-0.001953,0.507568,31.588821
60167224,-5.000000,0.609756,-1.036585,0.033203,0.001465,0.513428,31.588821
60168267,-5.000000,0.670732,-0.914634,0.034424,-0.001709,0.510498,31.635881
60169294,-4.878049,0.670732,-0.975610,0.034912,-0.000732,0.508301,31.541763
60170321,-4.817073,0.731707,-0.914634,0.034424,-0.000488,0.507080,31.635881
60171352,-4.756098,0.792683,-0.975610,0.035645,0.000000,0.509766,31.635881
60172361,-5.000000,0.670732,-1.036585,0.039551,-0.001709,0.513672,31.588821
60173399,-5.060976,0.670732,-1.158537,0.039062,0.000977,0.513184,31.588821
60174484,-5.000000,0.731707,-1.158537,0.032715,0.001953,0.515869,31.588821
60175546,-4.817073,0.731707,-0.975610,0.034180,-0.002197,0.507324,31.635881
60176616,-4.756098,0.792683,-0.975610,0.037598,0.002441,0.510498,31.682940
60177658,-4.878049,0.670732,-1.097561,0.035156,-0.000977,0.516846,31.588821
60178687,-4.939024,0.731707,-1.036585,0.042969,0.000732,0.514648,31.588821
60179721,-4.817073,0.792683,-1.158537,0.037598,-0.002686,0.507812,31.588821
60180792,-4.878049,0.853659,-1.341463,0.038086,-0.004395,0.510742,31.541763
60181849,-4.817073,0.670732,-1.158537,0.034180,-0.007080,0.518311,31.635881
60182900,-5.000000,0.731707,-0.914634,0.035156,-0.005859,0.516846,31.682940
60183937,-4.939024,0.670732,-1.036585,0.038086,0.000732,0.511963,31.682940
60184966,-4.878049,0.548781,-1.097561,0.032227,-0.000977,0.518066,31.494705
60186023,-4.817073,0.609756,-1.097561,0.035645,-0.004150,0.518555,31.541763
60187056,-4.817073,0.731707,-0.975610,0.037354,-0.001953,0.511963,31.635881
60188095,-4.939024,0.792683,-0.975610,0.038818,-0.006348,0.518066,31.635881
60189139,-5.000000,0.609756,-0.792683,0.034912,-0.003662,0.518066,31.588821
60190170,-5.000000,0.670732,-0.731707,0.035156,-0.000732,0.510010,31.682940
60191187,-5.000000,0.792683,-0.914634,0.035889,-0.001709,0.502686,31.588821
60192213,-4.878049,0.792683,-1.036585,0.033447,-0.000977,0.505615,31.588821
60193242,-4.817073,0.853659,-1.219512,0.031250,0.002197,0.504883,31.635881
60194283,-4.817073,0.731707,-1.341463,0.037109,-0.004395,0.507812,31.635881
60195371,-5.000000,0.609756,-1.097561,0.038330,-0.005371,0.510986,31.588821
60196452,-4.939024,0.609756,-0.914634,0.034668,-0.004639,0.510254,31.588821
60197519,-4.817073,0.731707,-1.036585,0.032227,-0.002686,0.506836,31.541763
60198569,-4.817073,0.731707,-1.280488,0.036621,0.000244,0.511719,31.541763
60199611,-5.000000,0.548781,-1.219512,0.040283,-0.001709,0.511963,31.588821
60200653,-5.060976,0.670732,-1.158537,0.036865,0.001221,0.512939,31.588821
60201687,-4.939024,0.792683,-1.036585,0.035400,-0.001465,0.512939,31.682940
60202725,-4.939024,0.914634,-1.036585,0.036133,0.001709,0.512695,31.494705
60203761,-4.939024,0.914634,-0.975610,0.041748,-0.002686,0.509033,31.588821
60204798,-4.817073,0.670732,-0.914634,0.036865,-0.001465,0.513916,31.635881
60205825,-4.756098,0.548781,-1.097561,0.033936,-0.000732,0.510498,31.635881
60206862,-4.817073,0.426829,-1.097561,0.033691,-0.001953,0.511963,31.682940
60207900,-4.878049,0.548781,-1.158537,0.036865,0.000488,0.510742,31.494705
60208937,-4.817073,0.609756,-1.036585,0.041504,-0.003906,0.508301,31.682940
60209963,-4.756098,0.670732,-0.914634,0.035889,-0.005859,0.512451,31.588821
60211004,-4.817073,0.670732,-1.219512,0.034912,0.002197,0.511963,31.635881
60212033,-4.817073,0.792683,-1.280488,0.036621,-0.002441,0.514160,31.541763
60213076,-4.939024,0.670732,-1.097561,0.034668,-0.000977,0.513184,31.541763
60214110,-5.000000,0.487805,-1.036585,0.037354,0.000732,0.510986,31.682940
60215154,-4.817073,0.426829,-0.975610,0.033203,-0.002686,0.513916,31.682940
60216182,-4.817073,0.548781,-0.914634,0.035156,-0.000244,0.510986,31.588821
60217221,-4.756098,0.548781,-1.097561,0.028564,-0.003174,0.516602,31.635881
60218263,-4.817073,0.609756,-1.036585,0.038574,0.000000,0.511719,31.541763
60219290,-4.878049,0.487805,-0.975610,0.041016,0.004395,0.513916,31.541763
60220342,-4.817073,0.609756,-0.975610,0.039795,-0.001709,0.507812,31.541763
60221436,-4.878049,0.731707,-1.097561,0.039062,-0.004639,0.506348,31.588821
60222551,-4.756098,0.670732,-1.036585,0.034912,-0.003418,0.514893,31.635881
60223621,-4.878049,0.731707,-1.097561,0.036621,-0.000244,0.512695,31.588821
60224673,-5.000000,0.975610,-1.097561,0.035889,-0.000732,0.516602,31.588821
60225691,-5.060976,0.792683,-1.036585,0.038574,-0.002197,0.512451,31.682940
60226731,-4.939024,0.609756,-1.158537,0.036133,-0.003662,0.510986,31.588821
60227768,-4.817073,0.487805,-1.219512,0.039062,-0.000732,0.514404,31.541763
60228846,-4.878049,0.609756,-1.097561,0.035645,-0.003418,0.512939,31.588821
60229929,-4.939024,0.731707,-1.036585,0.038330,-0.003906,0.516113,31.588821
60230982,-4.939024,0.670732,-1.219512,0.032959,-0.003418,0.515869,31.635881
60232035,-4.939024,0.609756,-1.219512,0.033447,-0.004639,0.512207,31.635881
60233076,-4.695122,0.670732,-0.975610,0.031982,-0.001221,0.509521,31.635881
60234119,-4.634146,0.731707,-0.975610,0.035400,-0.001953,0.510986,31.588821
60235151,-4.756098,0.792683,-0.975610,0.036377,-0.000488,0.510742,31.588821
60236178,-4.878049,0.853659,-0.670732,0.035645,-0.001465,0.511230,31.494705
60237210,-4.939024,1.036585,-0.670732,0.034668,0.000000,0.509033,31.588821
60238219,-4.878049,0.853659,-1.036585,0.032471,-0.000977,0.503906,31.541763
60239253,-4.878049,0.670732,-1.158537,0.032959,-0.000977,0.516846,31.541763
60240287,-4.878049,0.487805,-1.158537,0.034668,0.000488,0.519043,31.635881
60241315,-4.817073,0.609756,-1.036585,0.035645,-0.003418,0.506836,31.635881
60242340,-5.060976,0.975610,-1.158537,0.037109,-0.003418,0.502930,31.588821
60243382,-5.060976,0.914634,-1.097561,0.035645,0.003662,0.507080,31.682940
60244414,-5.000000,0.609756,-0.975610,0.035400,-0.000488,0.513184,31.588821
60245446,-4.878049,0.731707,-0.914634,0.031250,-0.002930,0.510498,31.682940
60246476,-4.939024,0.914634,-0.731707,0.039795,-0.001953,0.518066,31.635881
60247535,-5.000000,0.853659,-0.914634,0.037842,0.002686,0.509766,31.635881
60248579,-4.939024,0.792683,-1.097561,0.036621,0.000244,0.519531,31.635881
60249625,-5.000000,0.731707,-1.097561,0.035400,0.000977,0.517578,31.588821
60250658,-4.939024,0.731707,-1.158537,0.034424,-0.001221,0.518555,31.682940
60251708,-4.817073,0.853659,-1.158537,0.037109,-0.001953,0.506836,31.588821
60252746,-4.939024,0.792683,-1.158537,0.034668,-0.005371,0.503418,31.588821
60253784,-5.060976,0.487805,-1.280488,0.036133,-0.007812,0.505127,31.635881
60254884,-4.939024,0.609756,-1.341463,0.037109,-0.004883,0.513916,31.494705
60255944,-4.939024,0.853659,-1.158537,0.036621,0.001709,0.511963,31.588821
60256988,-4.817073,0.792683,-0.914634,0.036377,0.000244,0.511475,31.635881
60258024,-4.817073,0.670732,-0.792683,0.031738,-0.001465,0.514160,31.730000
60259058,-4.939024,0.731707,-0.853659,0.030273,-0.002441,0.512451,31.635881
60260092,-4.817073,0.792683,-0.914634,0.026367,-0.002686,0.509766,31.588821
60261145,-4.939024,0.792683,-0.853659,0.035889,0.003174,0.503418,31.682940
60262184,-4.878049,0.792683,-1.036585,0.034180,-0.000977,0.506592,31.682940
60263208,-4.878049,0.731707,-1.219512,0.031738,-0.002930,0.509277,31.541763
60264238,-4.878049,0.670732,-1.097561,0.027588,-0.005127,0.512695,31.635881
60265268,-5.000000,0.548781,-0.853659,0.028320,-0.001953,0.515625,31.541763
60266311,-4.878049,0.548781,-0.792683,0.031006,-0.002441,0.516846,31.541763
60267337,-4.756098,0.731707,-0.853659,0.035889,-0.002930,0.509033,31.588821
60268387,-4.695122,0.914634,-0.853659,0.034424,-0.002441,0.504150,31.588821
60269422,-4.756098,0.975610,-0.914634,0.039307,-0.003662,0.511475,31.588821
60270456,-4.878049,0.548781,-1.036585,0.034668,-0.002930,0.519287,31.541763
60271489,-4.878049,0.426829,-1.036585,0.029053,-0.002686,0.521973,31.635881
60272525,-4.878049,0.670732,-0.914634,0.034180,-0.002930,0.519775,31.635881
60273559,-4.939024,0.670732,-1.036585,0.034912,-0.001465,0.514893,31.730000
60274595,-4.817073,0.975610,-1.158537,0.031982,-0.002441,0.517090,31.682940
60275636,-4.878049,0.853659,-1.219512,0.037354,-0.001953,0.516113,31.494705
60276688,-5.060976,0.609756,-1.219512,0.037842,0.000977,0.507568,31.494705
60277743,-5.000000,0.609756,-0.975610,0.034912,-0.001465,0.505859,31.588821
60278776,-4.756098,0.670732,-1.097561,0.039307,-0.002686,0.514160,31.635881
60279817,-4.817073,0.670732,-1.097561,0.040283,-0.001221,0.510742,31.635881
60280856,-4.817073,0.853659,-1.219512,0.036377,-0.002686,0.514160,31.588821
60281898,-4.756098,0.975610,-1.097561,0.035156,-0.000977,0.515137,31.588821
60282930,-4.817073,0.792683,-1.280488,0.033936,-0.000244,0.510498,31.588821
60283968,-4.817073,0.670732,-0.914634,0.032471,-0.001221,0.517578,31.635881
60285003,-5.060976,0.853659,-0.914634,0.039062,-0.001709,0.520996,31.541763
60286113,-5.000000,0.731707,-1.158537,0.034912,-0.003906,0.521484,31.682940
60287180,-4.878049,0.731707,-1.280488,0.036377,-0.001953,0.515381,31.494705
60288220,-4.756098,0.853659,-1.219512,0.038574,-0.005859,0.513428,31.541763
60289265,-4.878049,0.731707,-1.158537,0.034424,-0.000977,0.508057,31.635881
60290294,-4.817073,0.792683,-0.914634,0.035156,-0.001221,0.501465,31.541763
60291329,-4.756098,0.792683,-1.097561,0.032715,-0.001709,0.513428,31.682940
60292357,-4.939024,0.731707,-1.402439,0.034424,-0.005127,0.508545,31.682940
60293398,-4.817073,0.609756,-1.158537,0.037842,-0.000977,0.513184,31.588821
60294434,-4.817073,0.792683,-0.914634,0.031006,-0.001953,0.508301,31.682940
60295473,-4.817073,0.670732,-0.914634,0.034668,-0.001709,0.514893,31.541763
60296528,-4.939024,0.670732,-1.158537,0.032227,-0.006104,0.518066,31.635881
60297571,-5.000000,0.731707,-1.036585,0.034912,-0.004639,0.516846,31.588821
60298612,-4.939024,0.426829,-0.975610,0.036133,-0.000488,0.514160,31.588821
60299654,-4.817073,0.487805,-0.792683,0.032227,0.000000,0.518311,31.588821
60300685,-4.817073,0.548781,-0.792683,0.029541,-0.000244,0.512695,31.588821
60301725,-5.000000,0.670732,-0.975610,0.034424,0.002441,0.511963,31.588821
60302755,-5.060976,0.670732,-1.158537,0.036377,-0.003906,0.512695,31.541763
60303793,-4.939024,0.487805,-1.280488,0.041992,0.000732,0.519775,31.635881
60304830,-4.878049,0.670732,-0.975610,0.042969,0.000488,0.514160,31.494705
60305864,-4.817073,0.792683,-0.853659,0.034912,0.002197,0.510254,31.588821
60306905,-4.756098,0.792683,-0.853659,0.034912,0.004395,0.517578,31.588821
60307943,-4.756098,0.609756,-0.975610,0.037842,0.002686,0.514404,31.541763
60308983,-4.939024,0.670732,-1.097561,0.031982,0.000732,0.506836,31.635881
60310038,-5.000000,0.609756,-1.036585,0.028564,0.005615,0.512207,31.541763
60311094,-4.878049,0.426829,-1.036585,0.033936,0.003662,0.511719,31.588821
60312140,-4.878049,0.548781,-1.158537,0.038086,0.001465,0.508789,31.588821
60313190,-4.817073,0.731707,-0.975610,0.036133,-0.001221,0.508545,31.682940
60314217,-4.817073,0.731707,-0.853659,0.041016,0.002197,0.504883,31.635881
60315256,-4.817073,0.670732,-1.097561,0.042236,0.003418,0.506104,31.541763
60316284,-4.878049,0.731707,-0.975610,0.039551,0.000244,0.509766,31.541763
60317315,-4.939024,0.670732,-1.036585,0.037842,-0.001709,0.501953,31.588821
60318344,-4.878049,0.792683,-1.280488,0.033936,-0.001221,0.506104,31.494705
60319383,-5.000000,0.914634,-1.097561,0.037842,-0.004883,0.512939,31.588821
60320416,-5.000000,0.914634,-0.914634,0.037842,-0.004150,0.513916,31.588821
60321456,-5.000000,0.914634,-1.036585,0.029785,-0.004883,0.513184,31.635881
60322490,-5.000000,0.914634,-1.036585,0.031250,-0.000488,0.510986,31.541763
60323528,-4.939024,0.792683,-0.914634,0.039062,-0.003906,0.507324,31.541763
60324614,-4.878049,0.914634,-0.792683,0.035400,0.002441,0.511719,31.588821
60325685,-4.817073,1.158537,-0.853659,0.036377,-0.001953,0.521484,31.588821
60326733,-4.939024,0.853659,-1.219512,0.041016,0.001221,0.513428,31.541763
60327783,-5.000000,0.670732,-1.341463,0.036621,-0.000977,0.510986,31.541763
60328818,-4.878049,0.609756,-1.158537,0.035400,-0.004639,0.506104,31.588821
60329856,-4.939024,0.670732,-1.219512,0.038330,-0.003418,0.510986,31.588821
60330918,-4.878049,0.853659,-0.914634,0.036133,-0.000977,0.516602,31.588821
60331956,-4.878049,0.792683,-1.097561,0.039307,-0.000977,0.508301,31.541763
60332993,-4.878049,0.853659,-1.280488,0.035400,0.002930,0.508545,31.635881
60334031,-5.000000,0.914634,-1.036585,0.037354,0.001709,0.516602,31.541763
60335066,-5.060976,0.731707,-0.914634,0.036621,-0.002686,0.514160,31.494705
60336115,-4.817073,0.548781,-1.036585,0.035156,-0.003906,0.509277,31.588821
60337155,-4.756098,0.731707,-1.158537,0.035400,-0.000732,0.509033,31.588821
60338187,-4.878049,0.914634,-1.158537,0.033203,-0.006104,0.510254,31.541763
60339236,-5.121951,0.914634,-1.280488,0.032471,-0.003906,0.507568,31.635881
60340271,-5.182927,0.853659,-1.158537,0.038574,0.001221,0.512207,31.541763
60341304,-5.000000,0.548781,-0.975610,0.036621,0.004639,0.515137,31.635881
60342331,-5.000000,0.487805,-1.097561,0.034668,-0.002441,0.511475,31.588821
60343360,-5.060976,0.487805,-1.158537,0.035889,-0.003906,0.518311,31.588821
60344396,-5.000000,0.731707,-1.036585,0.041016,-0.007324,0.510742,31.588821
60345434,-5.000000,0.853659,-0.975610,0.037109,-0.001953,0.518066,31.730000
60346473,-4.939024,0.853659,-0.853659,0.036133,-0.004639,0.519043,31.635881
60347516,-4.878049,0.670732,-1.158537,0.035889,-0.001221,0.512939,31.730000
60348556,-4.634146,0.731707,-1.158537,0.041016,-0.003662,0.509766,31.588821
60349596,-4.695122,0.853659,-0.975610,0.038574,-0.000977,0.508545,31.588821
60350637,-4.756098,0.670732,-0.792683,0.036377,-0.002441,0.509033,31.588821
60351683,-5.000000,0.670732,-0.731707,0.040039,-0.003418,0.506836,31.494705
60352717,-5.000000,0.731707,-0.914634,0.037354,-0.001221,0.507080,31.588821
60353759,-4.878049,0.975610,-1.036585,0.038574,-0.001465,0.519775,31.541763
60354798,-4.695122,0.975610,-1.158537,0.035889,-0.003418,0.521484,31.541763
60355837,-4.817073,0.853659,-1.280488,0.034180,-0.004150,0.524414,31.588821
60356880,-4.878049,0.548781,-1.097561,0.038330,-0.001953,0.518066,31.588821
60357939,-4.939024,0.548781,-1.036585,0.033691,-0.000488,0.512207,31.635881
60358981,-5.000000,0.731707,-0.914634,0.035645,0.004395,0.509521,31.730000
60360027,-4.878049,0.853659,-0.853659,0.032959,-0.000977,0.507568,31.541763
60361066,-4.878049,0.853659,-1.097561,0.033447,-0.005615,0.506836,31.588821
60362113,-4.939024,0.670732,-1.219512,0.039307,-0.000977,0.520020,31.588821
60363172,-5.060976,0.670732,-1.158537,0.033447,0.000244,0.511719,31.682940
60364202,-4.878049,0.853659,-1.097561,0.033203,-0.001709,0.506348,31.730000
60365232,-4.878049,0.731707,-1.280488,0.033203,-0.000244,0.503174,31.541763
60366265,-5.000000,0.609756,-1.341463,0.034912,-0.000488,0.501709,31.635881
60367292,-5.000000,0.548781,-1.280488,0.034912,-0.002930,0.507080,31.541763
60368321,-5.060976,0.731707,-1.280488,0.036865,-0.002197,0.515625,31.588821
60369369,-4.939024,0.792683,-0.975610,0.036377,0.000244,0.514160,31.588821
60370407,-4.878049,0.731707,-0.975610,0.036133,-0.001465,0.512207,31.588821
60371442,-4.878049,0.975610,-0.914634,0.034424,-0.006104,0.514893,31.635881
60372499,-4.817073,0.914634,-0.914634,0.035400,-0.003418,0.515625,31.541763
60373539,-4.817073,0.731707,-0.975610,0.035400,-0.003418,0.513184,31.635881
60374580,-4.817073,0.670732,-1.097561,0.034424,-0.007324,0.516357,31.494705
60375628,-4.878049,0.670732,-1.036585,0.035645,-0.004150,0.513428,31.682940
60376677,-4.939024,0.731707,-0.853659,0.034424,-0.001953,0.512451,31.682940
60377714,-5.000000,1.036585,-1.097561,0.035645,-0.003906,0.511963,31.682940
60378746,-4.817073,0.975610,-1.097561,0.031982,-0.008789,0.514160,31.635881
60379784,-4.756098,0.731707,-0.975610,0.034668,-0.004395,0.515625,31.541763
60380820,-4.878049,0.670732,-0.914634,0.038330,-0.004395,0.511719,31.588821
60381860,-4.939024,0.609756,-1.158537,0.040039,-0.002686,0.506836,31.682940
60382900,-4.878049,0.670732,-1.219512,0.036133,0.001465,0.505859,31.682940
60383939,-4.817073,0.792683,-0.975610,0.032715,-0.000488,0.515381,31.635881
60384976,-4.878049,0.792683,-1.097561,0.034424,0.000000,0.516602,31.541763
60386021,-4.878049,0.609756,-1.219512,0.032715,-0.002686,0.516113,31.635881
60387067,-4.939024,0.365854,-1.097561,0.034912,-0.003418,0.515625,31.588821
60388115,-4.878049,0.609756,-0.853659,0.035156,-0.006836,0.507812,31.588821
60389201,-4.817073,0.792683,-0.914634,0.031982,-0.002441,0.509033,31.541763
60390262,-4.756098,0.792683,-1.036585,0.032959,-0.005371,0.513184,31.541763
60391307,-4.817073,0.670732,-1.097561,0.036865,-0.004883,0.512939,31.588821
60392361,-4.817073,0.609756,-1.097561,0.035400,-0.012207,0.513672,31.588821
60393408,-4.939024,0.548781,-0.975610,0.032959,-0.004395,0.513916,31.588821
60394454,-4.939024,0.731707,-0.853659,0.040771,-0.003418,0.507324,31.541763
60395505,-4.939024,1.036585,-0.853659,0.039307,-0.001953,0.510010,31.635881
60396552,-4.939024,0.975610,-1.158537,0.039307,-0.000977,0.518555,31.588821
60397592,-5.000000,0.670732,-1.097561,0.034668,-0.004883,0.522949,31.588821
60398638,-4.878049,0.548781,-1.036585,0.030518,-0.006348,0.516602,31.588821
60399676,-4.695122,0.731707,-1.036585,0.030518,0.001221,0.512695,31.682940
60400713,-4.695122,0.792683,-1.036585,0.031250,0.001709,0.511230,31.541763
60401739,-4.756098,0.731707,-0.914634,0.035156,0.000000,0.514404,31.635881
60402766,-4.878049,0.731707,-0.914634,0.034424,-0.004395,0.520752,31.635881
60403801,-4.939024,0.731707,-1.036585,0.034180,0.001221,0.508301,31.682940
60404838,-4.939024,0.609756,-0.975610,0.032715,0.000977,0.517822,31.682940
60405864,-4.878049,0.670732,-0.914634,0.038574,-0.004395,0.510742,31.494705
60406906,-4.939024,0.853659,-0.975610,0.036133,-0.006348,0.503174,31.588821
60407936,-4.878049,0.914634,-0.975610,0.037598,-0.006836,0.504639,31.635881
60408992,-4.817073,0.792683,-1.036585,0.036865,0.000000,0.515625,31.730000
60410007,-4.817073,0.731707,-1.036585,0.036133,0.001709,0.517578,31.635881
60411052,-4.878049,0.731707,-1.158537,0.033447,-0.001953,0.514893,31.682940
60412085,-4.878049,0.731707,-1.158537,0.041504,-0.000488,0.517090,31.588821
60413147,-4.878049,0.670732,-1.097561,0.039795,0.001221,0.520752,31.682940
60414174,-4.878049,0.731707,-1.158537,0.031738,-0.000732,0.517822,31.447645
60415211,-4.878049,0.548781,-1.219512,0.032959,-0.003906,0.514648,31.635881
60416249,-5.060976,0.548781,-1.036585,0.029297,-0.004639,0.512451,31.635881
60417288,-5.121951,0.792683,-1.036585,0.031982,0.000732,0.509277,31.682940
60418323,-5.060976,0.975610,-1.097561,0.039551,0.000244,0.515381,31.588821
60419355,-4.817073,0.853659,-0.914634,0.038086,-0.004150,0.512207,31.588821
60420401,-4.756098,0.792683,-0.975610,0.031250,-0.000977,0.506836,31.588821
60421459,-4.756098,0.731707,-0.975610,0.029541,-0.002930,0.515137,31.541763
60422513,-4.756098,0.609756,-1.097561,0.028564,-0.001953,0.518555,31.730000
60423564,-5.060976,0.487805,-1.036585,0.033691,-0.002441,0.509521,31.682940
60424631,-5.000000,0.609756,-1.036585,0.031738,-0.000732,0.511719,31.588821
60425674,-5.000000,1.036585,-1.036585,0.040771,-0.001465,0.510254,31.588821
60426703,-5.000000,0.853659,-1.158537,0.038086,-0.002441,0.511230,31.588821
60427736,-4.817073,0.670732,-1.158537,0.033936,0.000488,0.512939,31.635881
60428782,-4.939024,0.792683,-1.097561,0.034912,-0.002686,0.511963,31.588821
60429840,-5.000000,0.792683,-1.036585,0.041016,0.000244,0.510254,31.588821
60430863,-4.939024,0.609756,-0.975610,0.035889,0.004150,0.511719,31.588821
60431903,-4.817073,0.609756,-0.853659,0.035400,0.005371,0.507080,31.588821
60432935,-5.000000,0.548781,-0.914634,0.038818,-0.001709,0.500732,31.635881
60433990,-5.000000,0.670732,-0.975610,0.040283,-0.002686,0.499756,31.635881
60435032,-4.939024,0.731707,-1.158537,0.032227,-0.001953,0.505859,31.494705
60436095,-4.939024,0.731707,-1.158537,0.036377,0.000244,0.514648,31.588821
60437142,-5.000000,0.487805,-1.036585,0.037598,0.000977,0.516357,31.588821
60438180,-5.000000,0.487805,-0.975610,0.038818,-0.005371,0.506592,31.730000
60439211,-5.000000,0.548781,-0.853659,0.034424,-0.004883,0.508301,31.635881
60440243,-4.817073,0.792683,-0.975610,0.036377,0.000977,0.515137,31.541763
60441277,-4.817073,0.975610,-1.097561,0.032471,-0.001953,0.517578,31.588821
60442316,-5.060976,0.670732,-1.036585,0.034180,-0.006104,0.506592,31.588821
60443350,-5.000000,0.487805,-0.975610,0.031738,-0.004639,0.506592,31.682940
60444389,-5.000000,0.731707,-0.914634,0.037842,-0.000732,0.516113,31.588821
60445428,-4.756098,0.914634,-1.036585,0.032715,-0.000977,0.515381,31.541763
60446477,-4.634146,0.914634,-1.097561,0.037354,-0.003906,0.516113,31.635881
60447524,-4.817073,0.670732,-1.036585,0.039795,-0.008545,0.516846,31.588821
60448573,-5.000000,0.670732,-0.914634,0.033691,-0.004639,0.517334,31.588821
60449632,-4.939024,0.731707,-0.975610,0.038330,0.000000,0.502930,31.682940
60450655,-4.878049,0.609756,-0.975610,0.036621,-0.003906,0.505859,31.588821
60451692,-4.878049,0.487805,-1.036585,0.033936,-0.005859,0.498047,31.588821
60452730,-4.756098,0.731707,-1.036585,0.036377,0.003662,0.504150,31.730000
60453760,-4.817073,0.792683,-0.975610,0.035400,0.005615,0.513184,31.730000
60454799,-4.939024,0.731707,-1.036585,0.037109,0.000000,0.514893,31.682940
60455810,-5.000000,0.853659,-0.975610,0.034912,-0.003662,0.515381,31.682940
60456867,-5.000000,0.975610,-1.158537,0.034180,0.000488,0.512207,31.588821
60457909,-5.060976,1.036585,-1.097561,0.034424,0.000488,0.513916,31.635881
60458966,-4.939024,1.036585,-0.975610,0.028320,-0.000244,0.512207,31.635881
60460005,-4.878049,0.914634,-1.097561,0.030762,-0.002686,0.517334,31.635881
60461047,-4.939024,0.548781,-1.036585,0.032715,-0.003418,0.516357,31.682940
60462079,-5.000000,0.487805,-0.914634,0.028564,0.000732,0.507812,31.588821
60463166,-4.939024,0.792683,-0.914634,0.028076,-0.002930,0.504150,31.635881
60464226,-4.878049,0.914634,-0.975610,0.038086,-0.003906,0.508545,31.541763
60465263,-4.878049,0.853659,-1.036585,0.038086,-0.003662,0.508545,31.635881
60466299,-5.000000,0.670732,-1.158537,0.038330,-0.003906,0.509521,31.588821
60467323,-5.000000,0.731707,-1.097561,0.032715,-0.005615,0.516113,31.588821
60468357,-5.000000,0.853659,-1.097561,0.034668,-0.001465,0.517090,31.588821
60469387,-5.060976,0.670732,-1.036585,0.041016,-0.005615,0.505859,31.682940
60470429,-4.939024,0.731707,-1.097561,0.039795,-0.006348,0.510254,31.635881
60471468,-4.939024,0.670732,-1.097561,0.040527,-0.007324,0.509521,31.730000
60472533,-4.939024,0.609756,-1.036585,0.033203,-0.004395,0.517822,31.494705
60473574,-4.878049,0.731707,-1.036585,0.033691,-0.004883,0.512939,31.588821
60474621,-4.939024,0.914634,-1.219512,0.034912,-0.003662,0.517578,31.588821
60475657,-5.060976,0.853659,-1.036585,0.036133,-0.000732,0.515137,31.682940
60476690,-5.060976,0.792683,-1.097561,0.041748,0.000488,0.514160,31.635881
60477715,-5.000000,0.670732,-0.975610,0.035645,0.000488,0.508545,31.635881
60478756,-4.939024,0.548781,-0.975610,0.037842,-0.001221,0.509277,31.541763
60479785,-4.878049,0.487805,-1.097561,0.034668,0.003662,0.514648,31.588821
60480817,-4.939024,0.426829,-1.036585,0.036377,0.001465,0.512939,31.682940
60481845,-5.000000,0.609756,-1.097561,0.034912,-0.001465,0.510742,31.682940
60482875,-5.000000,0.731707,-1.097561,0.034424,0.000488,0.509277,31.682940
60483902,-4.878049,0.792683,-0.975610,0.030518,0.000488,0.510986,31.635881
60484930,-4.756098,0.670732,-0.792683,0.036865,-0.003906,0.501953,31.635881
60485968,-4.878049,0.609756,-0.914634,0.044678,-0.001953,0.509277,31.635881
60487009,-4.878049,0.731707,-0.975610,0.039551,-0.001953,0.515137,31.541763
60488063,-4.878049,0.792683,-1.036585,0.033447,-0.004395,0.513672,31.682940
60489105,-4.817073,0.792683,-0.975610,0.033936,0.001465,0.510010,31.588821
60490149,-4.878049,0.609756,-1.036585,0.035400,-0.007080,0.507812,31.635881
60491230,-4.756098,0.609756,-1.036585,0.037842,-0.004639,0.508545,31.635881
60492287,-4.817073,0.609756,-0.731707,0.036621,-0.004395,0.510986,31.588821
60493332,-4.695122,0.487805,-0.731707,0.039062,-0.004150,0.508789,31.588821
60494421,-4.939024,0.731707,-0.975610,0.031982,-0.002441,0.513184,31.541763
60495489,-5.000000,0.792683,-1.158537,0.037109,-0.008057,0.513916,31.635881
60496544,-4.939024,0.670732,-1.158537,0.032715,-0.004150,0.518066,31.588821
60497592,-5.000000,0.487805,-0.975610,0.034180,0.001709,0.515625,31.682940
60498634,-5.060976,0.487805,-0.975610,0.037109,-0.001953,0.524414,31.588821
60499678,-4.939024,0.548781,-1.036585,0.035400,-0.002441,0.517822,31.588821
60500711,-4.512195,0.548781,-1.036585,0.036133,0.003174,0.513672,31.635881
60501746,-4.573171,0.609756,-1.097561,0.039307,-0.000488,0.510742,31.541763
60502778,-4.939024,0.792683,-1.097561,0.036865,-0.008545,0.512695,31.588821
60503812,-5.000000,0.975610,-1.036585,0.038818,-0.006836,0.510498,31.682940
60504839,-5.000000,0.914634,-0.914634,0.036377,-0.002441,0.512207,31.588821
60505869,-5.000000,0.792683,-0.975610,0.036133,-0.001953,0.513184,31.588821
60506898,-4.878049,0.670732,-1.097561,0.039307,-0.000732,0.519043,31.635881
60507926,-4.939024,0.731707,-1.097561,0.031738,0.000244,0.512695,31.635881
60508961,-5.000000,0.792683,-1.219512,0.032959,-0.005859,0.510498,31.635881
60510004,-4.939024,0.731707,-1.158537,0.031250,0.001221,0.513184,31.635881
60511036,-5.060976,0.670732,-0.975610,0.035156,-0.000244,0.508789,31.682940
60512065,-4.939024,0.609756,-0.853659,0.032959,-0.004883,0.505615,31.682940
60513106,-4.939024,0.609756,-0.975610,0.034912,-0.001465,0.514160,31.588821
60514157,-4.939024,0.426829,-0.975610,0.039062,-0.001221,0.517822,31.635881
60515239,-5.000000,0.670732,-0.975610,0.039795,-0.003906,0.516113,31.541763
60516313,-5.000000,0.731707,-1.036585,0.035156,-0.005859,0.514648,31.588821
60517360,-4.878049,0.487805,-1.097561,0.037842,-0.002930,0.520508,31.682940
60518404,-4.939024,0.426829,-1.097561,0.039795,-0.002930,0.516357,31.635881
60519456,-5.000000,0.731707,-0.975610,0.039551,-0.003174,0.518066,31.541763
60520509,-4.939024,0.914634,-0.914634,0.036621,0.001465,0.510986,31.682940
60521557,-4.939024,0.914634,-1.036585,0.036133,-0.001221,0.516602,31.588821
60522605,-5.000000,0.914634,-1.036585,0.033203,-0.004150,0.517334,31.682940
60523649,-5.060976,0.731707,-0.853659,0.034424,-0.004883,0.510010,31.588821
60524682,-5.060976,0.670732,-0.975610,0.036377,0.000732,0.518066,31.635881
60525717,-5.060976,0.670732,-1.158537,0.032471,0.006836,0.515869,31.635881
60526739,-4.878049,0.731707,-1.219512,0.036621,0.003906,0.508301,31.635881
60527781,-4.695122,0.731707,-1.036585,0.037354,0.001953,0.510254,31.588821
60528805,-4.939024,0.853659,-0.792683,0.034912,-0.002197,0.500488,31.588821
60529859,-4.939024,0.792683,-0.853659,0.033691,-0.001709,0.511963,31.588821
60530892,-4.939024,0.670732,-1.219512,0.037598,0.000244,0.510254,31.635881
60531932,-4.817073,0.670732,-1.219512,0.036621,-0.000977,0.504639,31.541763
60532982,-4.878049,0.670732,-0.914634,0.036377,-0.001953,0.512451,31.541763
60534025,-4.939024,0.792683,-0.914634,0.031494,0.002686,0.513672,31.588821
60535058,-4.817073,0.792683,-1.036585,0.037842,-0.000488,0.510254,31.588821
60536122,-4.878049,0.792683,-1.036585,0.037109,-0.000732,0.511719,31.588821
60537154,-4.939024,0.853659,-1.097561,0.034424,0.001953,0.509521,31.635881
60538199,-4.817073,0.975610,-1.158537,0.035889,0.004395,0.507324,31.635881
60539256,-4.939024,0.853659,-1.158537,0.036865,0.005615,0.511475,31.682940
60540311,-4.939024,0.670732,-1.036585,0.037109,-0.003662,0.520264,31.588821
60541352,-4.756098,0.731707,-1.158537,0.036133,-0.004639,0.515137,31.588821
60542400,-4.878049,0.792683,-1.341463,0.041748,-0.004395,0.517090,31.541763
60543451,-5.060976,0.670732,-1.219512,0.035156,-0.000977,0.511963,31.730000
60544500,-4.939024,0.670732,-1.219512,0.034180,-0.002686,0.511719,31.588821
60545548,-4.756098,0.670732,-1.036585,0.033936,-0.003174,0.508057,31.588821
60546595,-4.756098,0.731707,-0.792683,0.028076,-0.000732,0.516357,31.682940
60547644,-4.878049,0.670732,-0.853659,0.034668,-0.002686,0.513672,31.588821
60548682,-4.878049,0.609756,-1.158537,0.033447,-0.001953,0.509521,31.635881
60549723,-4.756098,0.853659,-1.219512,0.033691,-0.004150,0.509277,31.635881
60550761,-4.939024,1.036585,-0.914634,0.032471,-0.005127,0.509521,31.588821
60551800,-5.000000,0.914634,-1.036585,0.032471,-0.003662,0.512695,31.588821
60552824,-5.060976,0.731707,-1.280488,0.034668,0.000000,0.520264,31.588821
60553845,-5.060976,0.609756,-1.158537,0.035400,-0.003174,0.517578,31.682940
60554876,-4.817073,0.670732,-1.097561,0.038086,-0.001465,0.516602,31.635881
60555932,-4.939024,0.731707,-1.097561,0.032959,-0.001953,0.507812,31.635881
60557024,-4.878049,0.731707,-1.097561,0.031250,0.002686,0.509277,31.588821
60558081,-4.878049,0.853659,-1.036585,0.035645,0.001953,0.513184,31.588821
60559132,-4.878049,0.548781,-0.975610,0.027832,-0.000732,0.513428,31.635881
60560180,-4.939024,0.609756,-0.792683,0.034180,-0.001953,0.519531,31.635881
60561208,-4.939024,0.731707,-1.036585,0.033447,0.000732,0.517578,31.541763
60562247,-4.878049,0.853659,-1.097561,0.028809,-0.003906,0.516602,31.588821
60563270,-4.939024,0.792683,-0.975610,0.034424,0.002441,0.514160,31.588821
60564299,-5.060976,0.670732,-1.097561,0.034912,-0.000732,0.509277,31.682940
60565322,-5.060976,0.609756,-0.975610,0.035400,-0.003906,0.505615,31.682940
60566351,-4.878049,0.853659,-1.036585,0.034912,0.001953,0.514893,31.588821
60567387,-4.939024,0.975610,-1.097561,0.033447,-0.001221,0.514893,31.635881
60568440,-4.939024,0.853659,-1.219512,0.038330,-0.004395,0.512939,31.635881
60569475,-4.878049,0.670732,-1.036585,0.034424,0.000244,0.516357,31.541763
60570511,-4.817073,0.609756,-1.036585,0.032471,-0.000488,0.509766,31.588821
60571545,-4.756098,0.609756,-1.097561,0.033691,-0.005127,0.512451,31.588821
60572584,-4.756098,0.670732,-0.975610,0.036133,-0.000977,0.515381,31.494705
60573612,-4.817073,0.670732,-0.975610,0.037109,-0.003418,0.519775,31.682940
60574648,-4.817073,0.792683,-0.975610,0.035645,-0.001221,0.518311,31.588821
60575683,-4.817073,0.731707,-1.158537,0.033203,-0.002197,0.515625,31.541763
60576712,-4.756098,0.609756,-0.914634,0.029785,-0.001465,0.514648,31.635881
60577760,-4.939024,0.731707,-1.036585,0.034912,-0.003662,0.518066,31.588821
60578786,-4.878049,0.792683,-1.036585,0.035645,-0.006592,0.515137,31.682940
60579808,-4.817073,0.975610,-1.219512,0.037109,-0.005371,0.513916,31.588821
60580840,-4.756098,0.975610,-1.219512,0.033691,-0.000732,0.515869,31.682940
60581861,-4.878049,0.731707,-1.158537,0.034180,-0.000244,0.513428,31.635881
60582894,-4.939024,0.548781,-1.097561,0.033447,-0.001953,0.518311,31.635881
60583936,-5.000000,0.670732,-1.036585,0.034424,-0.003906,0.512451,31.541763
60584968,-4.878049,0.914634,-1.097561,0.039795,0.000000,0.509521,31.541763
60586007,-4.878049,0.853659,-1.036585,0.042236,0.000977,0.511963,31.588821
60587043,-5.000000,0.731707,-1.158537,0.041260,-0.001953,0.508545,31.588821
60588081,-4.878049,0.670732,-1.097561,0.040771,-0.001953,0.506348,31.588821
60589127,-4.817073,0.792683,-1.097561,0.038330,-0.003418,0.504395,31.635881
60590160,-4.939024,0.853659,-0.914634,0.038330,-0.002930,0.510254,31.635881
60591188,-5.060976,0.792683,-1.036585,0.044678,-0.000244,0.507568,31.635881
60592218,-5.000000,0.731707,-1.097561,0.034180,-0.004150,0.518066,31.635881
60593241,-4.817073,0.792683,-1.097561,0.034180,-0.006104,0.512207,31.682940
60594272,-4.634146,0.670732,-1.036585,0.028564,-0.003174,0.513916,31.588821
60595297,-4.695122,0.609756,-0.975610,0.038574,0.002441,0.506592,31.588821
60596330,-4.878049,0.609756,-0.914634,0.035645,-0.000488,0.509033,31.588821
60597352,-4.878049,0.853659,-0.670732,0.034668,-0.003174,0.510254,31.682940
60598404,-4.817073,0.914634,-0.975610,0.034912,-0.005859,0.505371,31.730000
60599443,-4.817073,0.670732,-1.097561,0.033691,-0.004883,0.510254,31.635881
60600500,-4.817073,0.548781,-1.097561,0.031738,-0.004883,0.520508,31.588821
60601531,-4.939024,0.548781,-0.975610,0.034180,-0.004395,0.516357,31.588821
60602569,-5.000000,0.792683,-1.036585,0.039307,-0.006104,0.513672,31.588821
60603595,-4.939024,0.792683,-1.036585,0.039551,-0.003662,0.509766,31.588821
60604636,-5.000000,0.670732,-1.036585,0.034668,-0.007812,0.514648,31.588821
60605707,-5.060976,0.731707,-0.975610,0.035645,-0.005859,0.507324,31.541763
60606759,-4.939024,0.487805,-1.036585,0.033447,-0.004639,0.502197,31.494705
60607797,-5.000000,0.670732,-1.219512,0.031250,-0.007080,0.507568,31.588821
60608827,-5.000000,0.731707,-1.219512,0.031006,0.001221,0.503906,31.588821
60609850,-5.060976,0.731707,-0.975610,0.035889,0.003174,0.494385,31.635881
60610887,-5.060976,0.853659,-1.097561,0.035889,-0.005127,0.504639,31.635881
60611921,-5.060976,0.670732,-1.219512,0.034180,-0.002441,0.513916,31.541763
60612962,-4.878049,0.609756,-1.036585,0.032471,-0.002197,0.509521,31.635881
60614003,-4.817073,0.609756,-1.097561,0.035645,-0.004150,0.507568,31.588821
60615060,-4.939024,0.609756,-1.036585,0.032227,-0.006348,0.507324,31.588821
60616102,-5.121951,0.731707,-1.036585,0.040283,-0.004150,0.507324,31.635881
60617148,-4.939024,0.853659,-0.914634,0.041260,-0.008301,0.511230,31.541763
60618179,-4.878049,0.975610,-0.792683,0.037109,-0.006348,0.517578,31.635881
60619206,-4.817073,0.975610,-1.036585,0.034668,-0.006592,0.513672,31.635881
60620242,-4.878049,0.792683,-1.219512,0.038330,-0.002441,0.509521,31.588821
60621271,-4.939024,0.731707,-1.097561,0.036133,0.001953,0.505371,31.588821
60622300,-5.060976,0.670732,-1.219512,0.039795,-0.000732,0.511719,31.588821
60623324,-5.000000,0.731707,-1.097561,0.041504,-0.002686,0.514893,31.494705
60624347,-4.878049,0.670732,-0.853659,0.035645,0.000000,0.522217,31.635881
60625358,-4.939024,0.731707,-0.914634,0.035400,0.003662,0.517090,31.730000
60626400,-4.756098,0.731707,-0.975610,0.037354,-0.003174,0.511719,31.635881
60627433,-4.756098,0.548781,-1.036585,0.037842,-0.003662,0.506592,31.730000
60628469,-4.817073,0.731707,-1.036585,0.039795,-0.001465,0.504883,31.588821
60629502,-5.060976,0.792683,-1.036585,0.033691,-0.000732,0.510498,31.682940
60630535,-5.060976,0.914634,-1.158537,0.031006,-0.000977,0.517822,31.588821
60631568,-4.756098,0.792683,-1.097561,0.034424,-0.002930,0.518799,31.588821
60632601,-4.634146,0.853659,-0.792683,0.034180,-0.002930,0.514160,31.682940
60633637,-4.756098,0.731707,-1.097561,0.035645,-0.003906,0.509521,31.588821
60634681,-4.695122,0.731707,-1.158537,0.037354,-0.003418,0.512695,31.635881
60635733,-4.817073,0.914634,-0.792683,0.039551,-0.001709,0.510498,31.588821
60636763,-4.939024,0.792683,-0.731707,0.040283,-0.001465,0.505615,31.682940
60637795,-4.756098,0.487805,-0.914634,0.038818,-0.000977,0.506104,31.588821
60638822,-4.695122,0.609756,-1.158537,0.036133,-0.000732,0.509766,31.588821
60639853,-4.817073,0.853659,-1.219512,0.038086,0.002441,0.512939,31.635881
60640890,-5.060976,1.036585,-0.975610,0.041504,-0.003662,0.517090,31.541763
60641928,-5.182927,0.914634,-0.914634,0.038330,-0.004639,0.517822,31.635881
60642967,-5.121951,0.670732,-0.975610,0.038330,-0.000977,0.511230,31.682940
60644005,-5.000000,0.426829,-0.975610,0.038574,-0.002930,0.520752,31.588821
60645052,-4.939024,0.487805,-0.975610,0.038086,-0.000977,0.512939,31.588821
60646113,-4.939024,0.609756,-1.158537,0.040771,0.003418,0.506592,31.635881
60647144,-4.939024,0.792683,-1.402439,0.036377,0.000000,0.513428,31.635881
60648155,-5.000000,0.548781,-1.341463,0.034912,0.003174,0.518311,31.541763
60649186,-4.878049,0.426829,-1.097561,0.030273,0.001221,0.510986,31.541763
60650216,-4.756098,0.548781,-0.975610,0.031250,-0.001465,0.514160,31.588821
60651239,-4.878049,0.731707,-1.158537,0.035889,-0.000488,0.511475,31.588821
60652266,-4.817073,0.731707,-1.402439,0.035400,-0.005615,0.506592,31.588821
60653292,-4.756098,0.853659,-1.219512,0.038086,-0.002686,0.514404,31.588821
60654321,-4.695122,0.792683,-0.975610,0.039795,-0.001709,0.515625,31.682940
60655344,-4.878049,0.731707,-1.097561,0.041016,-0.002930,0.513916,31.541763
60656387,-4.878049,0.731707,-1.158537,0.036133,-0.000977,0.508545,31.635881
60657418,-4.756098,0.670732,-1.158537,0.034668,-0.003174,0.502686,31.541763
60658454,-4.939024,0.853659,-1.219512,0.033447,-0.001709,0.511230,31.541763
60659502,-4.878049,0.792683,-1.036585,0.037109,-0.004150,0.505371,31.588821
60660543,-4.878049,0.670732,-1.097561,0.035645,-0.003906,0.509277,31.588821
60661576,-4.939024,0.609756,-1.097561,0.033447,0.001221,0.512451,31.682940
60662618,-4.939024,0.548781,-1.341463,0.036377,-0.004395,0.512207,31.588821
60663653,-4.939024,0.792683,-1.219512,0.035156,-0.006592,0.504639,31.541763
60664695,-4.939024,0.853659,-0.914634,0.034912,-0.004883,0.512695,31.541763
60665725,-4.817073,0.670732,-1.036585,0.037354,0.000000,0.520752,31.588821
60666743,-4.878049,0.731707,-0.975610,0.036621,0.000244,0.509521,31.588821
60667773,-4.878049,0.792683,-0.914634,0.035645,-0.003174,0.507568,31.682940
60668807,-4.878049,0.670732,-0.853659,0.038086,-0.000488,0.510254,31.682940
60669830,-4.878049,0.609756,-0.975610,0.035889,-0.005127,0.503662,31.682940
60670885,-4.939024,0.487805,-0.975610,0.034912,-0.003174,0.509521,31.635881
60671920,-4.939024,0.548781,-1.097561,0.035400,0.001709,0.514893,31.730000
60672962,-5.000000,0.487805,-1.158537,0.036377,-0.001953,0.511475,31.682940
60674005,-4.939024,0.609756,-1.158537,0.034424,0.000488,0.506104,31.682940
60675058,-4.878049,0.853659,-0.914634,0.037842,-0.001953,0.510742,31.682940
60676092,-4.817073,0.853659,-0.975610,0.036133,-0.001465,0.517822,31.635881
60677141,-4.878049,0.731707,-1.280488,0.033447,-0.003906,0.519043,31.635881
60678172,-4.939024,0.487805,-1.158537,0.027588,-0.002930,0.514404,31.635881
60679200,-4.939024,0.670732,-1.036585,0.028809,-0.003662,0.512207,31.635881
60680239,-5.000000,0.853659,-1.036585,0.033447,-0.003174,0.512695,31.588821
60681283,-5.060976,0.914634,-0.914634,0.031250,-0.002441,0.511475,31.682940
60682310,-5.060976,0.914634,-0.975610,0.038574,-0.002930,0.509766,31.588821
60683335,-4.939024,0.792683,-0.975610,0.031494,-0.001465,0.503906,31.541763
60684377,-4.878049,0.487805,-0.975610,0.033447,-0.005859,0.510986,31.635881
60685411,-4.939024,0.426829,-1.036585,0.032959,-0.000488,0.515625,31.635881
60686449,-5.060976,0.548781,-1.158537,0.033447,0.001465,0.512451,31.635881
60687495,-5.000000,0.792683,-1.097561,0.031982,-0.003174,0.511475,31.588821
60688527,-4.939024,0.853659,-1.097561,0.031494,-0.003418,0.515137,31.682940
60689579,-4.817073,0.731707,-1.097561,0.031494,-0.002441,0.512207,31.588821
60690621,-4.817073,0.731707,-1.036585,0.034180,-0.000977,0.509033,31.635881
60691669,-4.817073,0.609756,-0.914634,0.031738,0.000244,0.510254,31.541763
60692704,-5.060976,0.914634,-1.097561,0.034668,-0.000244,0.517578,31.635881
60693755,-5.060976,0.914634,-1.097561,0.035889,-0.001465,0.520752,31.588821
60694783,-4.756098,0.792683,-1.158537,0.032715,-0.001953,0.511719,31.682940
60695831,-4.756098,0.426829,-1.219512,0.030762,0.000977,0.510742,31.635881
60696868,-4.817073,0.487805,-1.219512,0.033936,-0.001709,0.509766,31.635881
60697901,-5.000000,0.670732,-1.097561,0.032471,-0.002686,0.511475,31.730000
60698947,-5.121951,0.792683,-1.036585,0.031982,-0.004395,0.506836,31.730000
60700006,-5.121951,0.914634,-0.975610,0.035645,-0.000732,0.514160,31.588821
60701040,-4.939024,0.670732,-1.036585,0.037598,0.004150,0.505371,31.588821
60702079,-4.817073,0.609756,-1.158537,0.039307,-0.003906,0.514648,31.635881
60703132,-4.939024,0.731707,-1.036585,0.037109,-0.000732,0.510010,31.541763
60704163,-4.817073,0.731707,-1.097561,0.039551,-0.002441,0.512207,31.541763
60705193,-4.817073,0.853659,-1.036585,0.039795,-0.002930,0.514893,31.635881
60706225,-4.939024,0.670732,-1.036585,0.035400,-0.003418,0.515381,31.588821
60707247,-4.878049,0.548781,-1.036585,0.032471,-0.003662,0.517822,31.777058
60708279,-4.878049,0.548781,-1.158537,0.031738,0.000000,0.510986,31.682940
60709299,-4.756098,0.487805,-1.219512,0.034912,0.003174,0.510010,31.588821
60710352,-4.939024,0.670732,-0.975610,0.032715,-0.002441,0.516113,31.635881
60711398,-5.060976,0.731707,-1.036585,0.034912,-0.001953,0.515869,31.635881
60712442,-5.000000,0.914634,-0.975610,0.036133,-0.003174,0.509766,31.635881
60713466,-4.939024,0.853659,-1.036585,0.028809,-0.006348,0.511719,31.588821
60714508,-4.939024,0.731707,-1.097561,0.037842,0.000488,0.512207,31.588821
60715539,-4.878049,0.609756,-1.158537,0.039551,-0.000244,0.507812,31.588821
60716632,-4.939024,0.670732,-1.097561,0.036133,-0.000732,0.504883,31.730000
60717709,-5.000000,0.731707,-0.975610,0.035400,-0.001953,0.509033,31.682940
60718749,-5.000000,0.792683,-1.158537,0.037842,0.000977,0.516357,31.682940
60719771,-5.000000,0.792683,-1.097561,0.034668,0.003662,0.511475,31.588821
60720799,-5.000000,0.731707,-0.975610,0.035156,0.006104,0.515625,31.588821
60721824,-4.817073,0.914634,-0.975610,0.037842,-0.006348,0.512939,31.635881
60722855,-4.817073,0.853659,-1.097561,0.034180,-0.005615,0.515869,31.541763
60723888,-4.939024,0.731707,-1.036585,0.032959,0.000977,0.514893,31.541763
60724923,-5.000000,0.670732,-0.853659,0.035645,-0.001221,0.510742,31.635881
60725948,-4.939024,0.609756,-0.975610,0.033936,0.000000,0.512695,31.682940
60726969,-4.939024,0.792683,-1.097561,0.041016,0.000732,0.517578,31.588821
60728011,-5.000000,0.975610,-1.097561,0.034912,0.000244,0.516357,31.588821
60729042,-4.878049,0.731707,-1.158537,0.028564,-0.001465,0.514404,31.588821
60730071,-4.756098,0.487805,-0.975610,0.034668,0.000000,0.516602,31.635881
60731111,-4.817073,0.609756,-1.158537,0.037354,0.000000,0.525635,31.541763
60732138,-4.878049,0.853659,-1.097561,0.036865,-0.003662,0.517822,31.635881
60733174,-5.000000,0.792683,-1.097561,0.037109,-0.006348,0.509766,31.635881
60734196,-5.000000,0.731707,-1.219512,0.036865,-0.000977,0.514160,31.682940
60735224,-5.000000,0.609756,-1.097561,0.038330,0.001709,0.517090,31.588821
60736252,-4.939024,0.670732,-0.975610,0.040771,-0.002930,0.514160,31.682940
60737282,-4.939024,0.792683,-0.914634,0.038330,-0.002441,0.503418,31.588821
60738308,-4.939024,0.853659,-1.158537,0.041016,-0.003174,0.509277,31.588821
60739338,-5.000000,0.853659,-1.402439,0.040527,-0.003418,0.516602,31.541763
60740360,-5.060976,0.792683,-1.280488,0.037354,-0.002930,0.518066,31.541763
60741397,-5.000000,0.670732,-0.914634,0.036133,0.001465,0.513672,31.635881
60742423,-4.817073,0.548781,-0.792683,0.033691,-0.003418,0.511230,31.541763
60743466,-4.573171,0.731707,-0.975610,0.037842,-0.004639,0.509766,31.682940
60744505,-4.695122,0.853659,-1.036585,0.034424,-0.003174,0.519043,31.588821
60745543,-4.878049,0.731707,-1.158537,0.031250,-0.003662,0.510986,31.588821
60746579,-5.000000,0.731707,-1.219512,0.031982,-0.004639,0.515625,31.682940
60747619,-4.939024,0.853659,-1.158537,0.038330,-0.006836,0.509033,31.541763
60748656,-4.756098,0.731707,-0.914634,0.032715,-0.009766,0.507080,31.541763
60749697,-4.695122,0.548781,-0.975610,0.036377,-0.009033,0.512695,31.588821
60750724,-4.756098,0.487805,-1.036585,0.036133,-0.002441,0.511963,31.588821
60751769,-4.817073,0.792683,-0.853659,0.036621,0.000732,0.507324,31.588821
60752796,-4.878049,0.975610,-0.975610,0.037109,-0.001221,0.506104,31.682940
60753822,-4.817073,1.097561,-1.158537,0.034424,-0.004883,0.511475,31.541763
60754851,-4.817073,0.914634,-1.097561,0.029053,0.003662,0.514160,31.635881
60755889,-4.878049,0.792683,-1.036585,0.032959,0.000000,0.517822,31.635881
60756899,-4.878049,0.731707,-0.975610,0.032471,-0.003662,0.519287,31.635881
60757944,-4.878049,0.731707,-1.036585,0.033691,-0.002686,0.513916,31.682940
60758974,-4.939024,0.731707,-1.097561,0.035156,-0.006104,0.507324,31.682940
60760030,-4.939024,0.609756,-1.036585,0.034668,-0.005615,0.504395,31.682940
60761059,-5.000000,0.670732,-1.036585,0.039062,-0.001709,0.516846,31.635881
60762155,-4.939024,0.609756,-0.975610,0.037354,0.000000,0.510742,31.635881
60763195,-4.756098,0.609756,-1.036585,0.031982,-0.004639,0.509521,31.682940
60764236,-4.817073,0.731707,-1.097561,0.034668,-0.002686,0.512695,31.588821
60765264,-4.878049,0.731707,-0.975610,0.038818,0.000000,0.513184,31.588821
60766270,-4.878049,0.792683,-1.036585,0.036133,-0.004395,0.508301,31.682940
60767320,-5.000000,0.609756,-1.219512,0.035156,-0.002197,0.508789,31.635881
60768343,-4.878049,0.487805,-1.097561,0.033936,0.004639,0.513916,31.635881
60769379,-4.939024,0.487805,-1.036585,0.035889,-0.003418,0.513916,31.635881
60770413,-5.060976,0.731707,-1.097561,0.035645,-0.005615,0.507080,31.635881
60771464,-4.695122,0.731707,-1.097561,0.035156,-0.002441,0.502686,31.588821
60772499,-4.817073,0.792683,-1.036585,0.033203,-0.002686,0.502686,31.682940
60773536,-5.000000,0.731707,-0.853659,0.032227,-0.002197,0.507812,31.588821
60774632,-4.939024,0.670732,-0.853659,0.033203,-0.001953,0.507324,31.635881
60775693,-4.939024,0.792683,-1.036585,0.031006,-0.003906,0.511475,31.682940
60776726,-4.939024,0.731707,-1.036585,0.039307,-0.004883,0.510254,31.682940
60777764,-4.878049,0.914634,-1.036585,0.041748,-0.004395,0.513916,31.682940
60778794,-4.939024,0.670732,-1.097561,0.036133,0.000000,0.506104,31.588821
60779813,-4.939024,0.670732,-1.097561,0.037842,-0.002441,0.509277,31.635881
60780849,-4.817073,0.670732,-1.158537,0.033203,-0.001709,0.520508,31.635881
60781884,-4.756098,0.609756,-0.975610,0.036133,-0.002197,0.514404,31.730000
60782917,-4.817073,0.731707,-0.914634,0.035645,-0.001953,0.509033,31.635881
60783953,-4.817073,0.609756,-1.036585,0.031006,0.003174,0.511719,31.777058
60785000,-4.939024,0.731707,-1.097561,0.033447,-0.003662,0.509033,31.682940
60786041,-4.939024,0.792683,-0.975610,0.036865,-0.000732,0.512451,31.588821
60787078,-4.878049,0.792683,-0.853659,0.034912,0.001465,0.511963,31.635881
60788117,-4.939024,0.670732,-0.853659,0.033203,0.000000,0.515137,31.635881
60789147,-5.000000,0.670732,-1.036585,0.035645,-0.004639,0.511719,31.635881
60790181,-4.939024,1.036585,-1.158537,0.034912,-0.003174,0.515381,31.682940
60791216,-5.000000,0.853659,-1.219512,0.030762,-0.004150,0.511475,31.588821
60792249,-4.878049,0.792683,-1.097561,0.031982,-0.006592,0.508301,31.588821
60793285,-4.756098,0.792683,-1.097561,0.036377,-0.001953,0.510498,31.682940
60794314,-4.756098,0.853659,-0.975610,0.035889,0.000488,0.513672,31.635881
60795346,-4.817073,0.914634,-0.853659,0.036133,-0.001709,0.510742,31.635881
60796384,-4.939024,0.975610,-0.792683,0.032715,-0.005859,0.516357,31.635881
60797427,-5.000000,0.792683,-0.914634,0.033936,-0.012207,0.508545,31.682940
60798461,-5.000000,0.792683,-0.975610,0.034180,-0.005371,0.511475,31.588821
60799514,-4.817073,0.731707,-1.036585,0.037842,0.002930,0.513428,31.588821
60800550,-4.878049,0.670732,-1.219512,0.032715,-0.004639,0.504150,31.588821
60801593,-4.817073,0.853659,-1.158537,0.035400,-0.000977,0.514648,31.635881
60802634,-4.878049,0.914634,-1.158537,0.036865,-0.000244,0.516357,31.635881
60803677,-4.939024,0.731707,-0.975610,0.033203,-0.000732,0.510742,31.588821
60804710,-4.939024,0.548781,-0.975610,0.031982,-0.001465,0.508545,31.588821
60805743,-4.939024,0.731707,-1.158537,0.033936,-0.000488,0.505615,31.588821
60806788,-5.000000,0.914634,-1.219512,0.031738,-0.003418,0.507080,31.682940
60807814,-4.939024,0.853659,-0.914634,0.035400,-0.004639,0.507080,31.635881
60808849,-4.878049,0.670732,-0.853659,0.037354,-0.003906,0.501465,31.635881
60809878,-4.939024,0.609756,-0.792683,0.036865,0.000732,0.506592,31.730000
60810912,-5.121951,0.609756,-0.914634,0.036621,-0.002930,0.511475,31.635881
60811953,-5.000000,0.731707,-0.975610,0.035645,-0.000488,0.508789,31.588821
60813002,-5.060976,0.731707,-1.036585,0.034912,-0.000977,0.508301,31.588821
60814041,-4.939024,0.792683,-1.158537,0.039062,-0.003662,0.507080,31.635881
60815145,-4.939024,0.975610,-1.097561,0.036133,-0.004883,0.508545,31.635881
60816204,-5.000000,0.792683,-1.158537,0.035400,0.000244,0.508057,31.588821
60817244,-5.000000,0.670732,-1.036585,0.039307,-0.003906,0.510254,31.682940
60818278,-4.939024,0.609756,-1.036585,0.034912,-0.003418,0.511963,31.588821
60819315,-4.817073,0.792683,-1.158537,0.029297,0.000977,0.517090,31.541763
60820352,-5.000000,0.853659,-1.158537,0.034668,0.000000,0.508789,31.635881
60821384,-5.000000,0.670732,-1.036585,0.038574,-0.004639,0.509277,31.635881
60822434,-4.878049,0.548781,-0.792683,0.035156,0.000244,0.522705,31.682940
60823474,-4.817073,0.548781,-1.036585,0.033447,-0.001221,0.518311,31.588821
60824521,-4.817073,0.487805,-1.097561,0.041016,0.000732,0.512207,31.588821
60825560,-4.878049,0.609756,-0.975610,0.041016,-0.001953,0.510498,31.588821
60826607,-4.878049,0.792683,-0.975610,0.036621,0.005127,0.509033,31.635881
60827648,-5.000000,0.975610,-1.097561,0.036865,0.002930,0.506836,31.635881
60828684,-4.817073,0.792683,-1.097561,0.036865,-0.004395,0.509033,31.588821
60829719,-4.817073,0.731707,-1.158537,0.036621,-0.002441,0.512207,31.588821
60830751,-4.695122,0.670732,-1.219512,0.036133,-0.001709,0.510010,31.588821
60831784,-4.512195,0.792683,-1.219512,0.029541,-0.006348,0.504150,31.635881
60832816,-4.695122,0.792683,-1.036585,0.033691,-0.000488,0.511230,31.635881
60833868,-4.817073,0.792683,-0.914634,0.036377,0.004395,0.503662,31.635881
60834900,-4.939024,0.487805,-1.097561,0.032959,0.004883,0.499268,31.541763
60835933,-4.939024,0.609756,-1.097561,0.037842,-0.001465,0.510010,31.588821
60836972,-4.939024,0.792683,-1.097561,0.036865,-0.004395,0.517334,31.588821
60838008,-4.939024,0.609756,-1.036585,0.033936,-0.005371,0.506104,31.682940
60839047,-4.939024,0.487805,-0.975610,0.033447,-0.006104,0.514648,31.635881
60840106,-5.000000,0.365854,-1.097561,0.035400,-0.005127,0.516846,31.541763
60841147,-4.878049,0.426829,-1.280488,0.033936,0.001709,0.512939,31.635881
60842186,-4.817073,0.609756,-0.914634,0.037842,0.000000,0.509521,31.682940
60843207,-5.060976,0.792683,-0.914634,0.036377,-0.007080,0.515625,31.682940
60844257,-4.939024,0.792683,-0.975610,0.039307,-0.005859,0.514404,31.588821
60845295,-4.817073,0.731707,-1.097561,0.036865,-0.008057,0.511963,31.730000
60846332,-4.878049,0.609756,-1.158537,0.039062,-0.003906,0.516846,31.635881
60847424,-4.939024,0.792683,-1.036585,0.037354,0.000000,0.516357,31.588821
60848476,-4.878049,0.731707,-0.914634,0.036621,-0.001221,0.513672,31.777058
60849538,-4.817073,0.426829,-1.158537,0.042480,-0.004883,0.508057,31.682940
60850581,-4.939024,0.487805,-1.036585,0.033203,-0.002197,0.509033,31.635881
60851634,-5.060976,0.731707,-0.914634,0.037598,-0.003418,0.505859,31.635881
60852682,-4.939024,0.914634,-1.036585,0.039307,0.002930,0.508545,31.588821
60853709,-4.817073,0.853659,-1.219512,0.031494,0.001221,0.515381,31.588821
60854753,-4.878049,0.853659,-1.158537,0.029785,-0.003662,0.511475,31.588821
60855783,-4.878049,0.609756,-1.036585,0.034668,-0.005615,0.512451,31.635881
60856820,-5.000000,0.670732,-0.914634,0.032227,-0.002930,0.510254,31.635881
60857845,-5.000000,0.548781,-1.036585,0.033691,-0.002930,0.505859,31.635881
60858899,-4.939024,0.670732,-1.097561,0.035645,-0.001221,0.508057,31.588821
60859939,-4.817073,0.792683,-0.853659,0.034180,-0.000488,0.504395,31.494705
60860972,-4.878049,0.670732,-0.670732,0.029541,-0.001953,0.511475,31.682940
60862011,-4.939024,0.731707,-0.853659,0.032471,0.000000,0.512207,31.682940
60863027,-5.000000,0.792683,-1.036585,0.037354,-0.002197,0.517578,31.635881
60864069,-5.000000,0.548781,-0.975610,0.035400,-0.000732,0.510742,31.541763
60865105,-5.000000,0.609756,-0.975610,0.037598,0.001221,0.504395,31.541763
60866145,-4.939024,0.731707,-1.036585,0.039551,0.000244,0.508789,31.635881
60867182,-4.878049,0.548781,-1.036585,0.036133,-0.003906,0.506592,31.588821
60868220,-4.817073,0.731707,-0.975610,0.030762,-0.001953,0.506592,31.682940
60869275,-4.817073,0.792683,-0.975610,0.034668,-0.001465,0.502197,31.635881
60870314,-4.817073,0.792683,-1.036585,0.031006,0.004639,0.505371,31.730000
60871350,-4.756098,0.670732,-1.097561,0.039307,0.003418,0.505371,31.635881
60872395,-4.878049,0.487805,-0.914634,0.039551,-0.000977,0.509277,31.635881
60873440,-4.878049,0.731707,-1.036585,0.035645,-0.004883,0.508789,31.682940
60874486,-4.817073,0.975610,-1.158537,0.034668,-0.006104,0.509277,31.682940
60875545,-4.939024,0.792683,-1.158537,0.035645,-0.006104,0.514648,31.588821
60876591,-5.121951,0.670732,-1.036585,0.030762,-0.001709,0.510742,31.635881
60877634,-4.939024,0.609756,-1.097561,0.033447,-0.001465,0.513916,31.635881
60878679,-4.817073,0.426829,-1.219512,0.030029,0.002686,0.510986,31.588821
60879714,-4.756098,0.487805,-0.792683,0.035889,0.005127,0.506348,31.588821
60880740,-4.817073,0.792683,-1.036585,0.034912,0.001221,0.502930,31.588821
60881775,-4.878049,0.731707,-1.036585,0.034180,0.000000,0.507812,31.635881
60882841,-5.000000,0.670732,-1.219512,0.039551,-0.001709,0.504883,31.635881
60883900,-5.000000,0.670732,-1.097561,0.034668,-0.000732,0.507324,31.682940
60884937,-4.939024,0.731707,-1.036585,0.028809,-0.004395,0.517578,31.588821
60885993,-4.878049,0.853659,-0.975610,0.031982,-0.002686,0.510254,31.682940
60887025,-4.756098,0.914634,-0.975610,0.035156,0.002441,0.506592,31.635881
60888064,-4.817073,0.792683,-1.097561,0.034668,-0.000732,0.513916,31.730000
60889106,-4.817073,0.792683,-0.975610,0.038818,0.000000,0.513428,31.730000
60890144,-4.817073,0.670732,-1.036585,0.035156,-0.004639,0.509766,31.682940
60891179,-4.817073,0.365854,-1.341463,0.035645,-0.007080,0.515137,31.682940
60892210,-4.878049,0.609756,-1.341463,0.036621,-0.001221,0.515381,31.588821
60893236,-4.756098,0.731707,-1.036585,0.034424,0.002930,0.516357,31.682940
60894268,-4.817073,0.670732,-1.036585,0.035889,0.002930,0.518555,31.541763
60895292,-4.939024,0.548781,-1.097561,0.037354,0.000977,0.520264,31.635881
60896337,-4.939024,0.426829,-1.158537,0.031250,-0.004395,0.515869,31.635881
60897365,-4.939024,0.548781,-0.853659,0.034912,-0.005127,0.514648,31.635881
60898404,-4.939024,0.853659,-0.975610,0.033203,-0.005127,0.506836,31.682940
60899436,-4.878049,0.914634,-1.280488,0.035400,-0.001709,0.512207,31.588821
60900491,-4.878049,0.792683,-1.219512,0.035400,-0.005371,0.511963,31.588821
60901527,-4.878049,0.670732,-1.158537,0.032715,-0.008301,0.505615,31.588821
60902579,-4.817073,0.670732,-1.036585,0.035400,-0.000488,0.516357,31.635881
60903613,-4.878049,0.670732,-1.097561,0.043457,0.000732,0.508545,31.541763
60904651,-4.817073,0.792683,-1.036585,0.039551,-0.001465,0.509033,31.588821
60905698,-4.756098,0.792683,-1.280488,0.035889,0.000977,0.512207,31.588821
60906732,-4.878049,0.731707,-1.158537,0.037354,0.000488,0.502686,31.682940
60907767,-4.939024,0.792683,-1.158537,0.030762,-0.006348,0.510742,31.541763
60908805,-5.121951,0.670732,-1.036585,0.025391,-0.001221,0.523926,31.635881
60909844,-4.939024,0.609756,-0.975610,0.032471,0.001465,0.512207,31.635881
60910878,-4.756098,0.731707,-0.853659,0.039795,-0.006348,0.514893,31.635881
60911912,-4.817073,0.975610,-0.914634,0.034668,0.000244,0.506836,31.588821
60912946,-5.000000,1.036585,-0.914634,0.038574,0.000977,0.513916,31.682940
60913977,-4.939024,0.792683,-0.914634,0.035889,-0.004395,0.515869,31.682940
60915015,-4.939024,0.670732,-1.036585,0.034668,-0.005371,0.515137,31.635881
60916051,-4.878049,0.670732,-1.158537,0.036133,-0.001953,0.504883,31.635881
60917091,-4.939024,0.731707,-0.975610,0.037109,-0.000977,0.507080,31.730000
60918143,-4.939024,0.670732,-0.914634,0.035645,-0.001709,0.514893,31.588821
60919178,-4.939024,0.670732,-0.792683,0.037598,-0.001953,0.514404,31.588821
60920203,-5.000000,0.670732,-0.914634,0.037109,-0.003906,0.510986,31.588821
60921230,-4.939024,0.670732,-0.975610,0.037109,-0.000488,0.518311,31.588821
60922265,-4.817073,0.792683,-1.097561,0.039062,0.001709,0.521973,31.635881
60923349,-4.817073,0.853659,-1.158537,0.042480,0.001709,0.509033,31.635881
60924417,-4.878049,0.975610,-1.158537,0.032227,0.002686,0.512207,31.588821
60925471,-4.817073,0.792683,-0.975610,0.031250,0.000000,0.505371,31.682940
60926515,-4.817073,0.487805,-0.914634,0.037842,-0.006592,0.509277,31.682940
60927567,-4.878049,0.487805,-1.036585,0.030273,0.002197,0.515869,31.541763
60928621,-5.000000,0.731707,-1.219512,0.032471,-0.004883,0.513428,31.635881
60929669,-5.000000,0.853659,-1.158537,0.033936,-0.004395,0.509033,31.682940
60930691,-4.939024,1.036585,-1.219512,0.032959,-0.003418,0.513916,31.588821
60931741,-4.939024,0.975610,-1.219512,0.032715,-0.003174,0.515381,31.588821
60932765,-4.817073,0.548781,-1.036585,0.028564,-0.009033,0.518311,31.635881
60933808,-4.817073,0.548781,-0.914634,0.033936,-0.003418,0.519775,31.635881
60934834,-4.878049,0.609756,-1.097561,0.037842,-0.000244,0.514404,31.730000
60935890,-5.000000,0.731707,-1.036585,0.037354,-0.003418,0.514160,31.588821
60936914,-4.939024,0.914634,-0.975610,0.036621,-0.001953,0.521240,31.682940
60937970,-4.817073,0.853659,-1.097561,0.034668,0.000488,0.511475,31.494705
60939013,-4.756098,0.548781,-1.158537,0.036865,0.002197,0.507568,31.635881
60940071,-4.817073,0.670732,-0.975610,0.039307,0.000977,0.510254,31.635881
60941110,-4.939024,0.670732,-0.914634,0.033447,0.001221,0.512695,31.635881
60942169,-5.000000,0.670732,-0.853659,0.036621,-0.009521,0.515381,31.588821
60943200,-4.939024,0.548781,-0.853659,0.038574,-0.006348,0.508545,31.588821
60944238,-4.939024,0.548781,-1.036585,0.034668,-0.003174,0.505127,31.588821
60945279,-4.817073,0.670732,-0.975610,0.033447,0.000244,0.508545,31.635881
60946317,-4.817073,0.731707,-1.097561,0.038574,0.001221,0.509277,31.635881
60947371,-4.939024,0.792683,-1.036585,0.035889,0.000488,0.512207,31.541763
60948418,-4.939024,0.670732,-1.158537,0.033447,-0.003906,0.508301,31.588821
60949467,-4.939024,0.609756,-1.036585,0.032471,-0.001953,0.505859,31.682940
60950519,-4.817073,0.670732,-1.219512,0.036865,-0.001465,0.515381,31.682940
60951569,-4.878049,0.609756,-1.219512,0.038574,-0.002930,0.510742,31.635881
60952621,-4.939024,0.670732,-0.914634,0.035156,-0.001953,0.512939,31.588821
60953670,-4.878049,0.792683,-0.792683,0.033447,-0.005127,0.515625,31.588821
60954707,-4.756098,0.853659,-1.036585,0.038818,-0.002930,0.510254,31.588821
60955741,-4.634146,0.792683,-1.219512,0.037598,-0.004639,0.505371,31.682940
60956790,-4.695122,0.487805,-1.097561,0.033691,-0.006348,0.509033,31.635881
60957842,-4.756098,0.487805,-1.097561,0.034424,-0.006592,0.518311,31.635881
60958893,-4.878049,0.853659,-0.914634,0.033691,-0.004395,0.514648,31.682940
60959947,-5.000000,0.975610,-0.731707,0.032227,0.000488,0.510986,31.588821
60960990,-4.939024,0.914634,-0.975610,0.034180,-0.000488,0.513428,31.588821
60962024,-4.939024,0.731707,-0.975610,0.033936,-0.003418,0.518066,31.541763
60963062,-5.000000,0.548781,-1.097561,0.035400,-0.000244,0.513428,31.635881
60964094,-5.060976,0.670732,-1.158537,0.037109,0.001465,0.512939,31.635881
60965138,-5.060976,0.731707,-1.158537,0.037354,-0.003906,0.516602,31.682940
60966175,-5.060976,0.731707,-1.036585,0.038086,-0.004395,0.510254,31.588821
60967214,-4.939024,0.548781,-1.097561,0.035645,-0.003174,0.506836,31.682940
60968280,-4.817073,0.609756,-1.158537,0.037842,-0.003662,0.503906,31.635881
60969321,-4.817073,0.914634,-1.097561,0.039062,-0.004150,0.509521,31.635881
60970432,-4.939024,0.731707,-1.036585,0.038574,-0.002930,0.512695,31.682940
60971521,-4.939024,0.609756,-1.036585,0.037354,-0.003418,0.514160,31.777058
60972581,-4.756098,0.670732,-1.097561,0.037109,-0.002686,0.508057,31.635881
60973631,-4.756098,0.792683,-0.853659,0.037354,0.000977,0.515137,31.588821
60974674,-4.817073,0.792683,-0.914634,0.042969,0.000732,0.509277,31.682940
60975708,-4.878049,0.548781,-1.097561,0.037354,-0.001221,0.513916,31.588821
60976742,-4.817073,0.487805,-1.036585,0.036377,-0.005859,0.511475,31.635881
60977790,-4.817073,0.731707,-1.158537,0.037598,-0.007324,0.509277,31.635881
60978843,-4.878049,0.670732,-1.280488,0.039795,0.000977,0.503662,31.730000
60979878,-5.060976,0.731707,-0.975610,0.033203,0.002197,0.515137,31.588821
60980912,-5.060976,0.792683,-0.853659,0.031006,-0.003906,0.515137,31.588821
60981965,-4.817073,0.609756,-0.853659,0.035156,-0.000977,0.510254,31.588821
60983006,-4.695122,0.731707,-1.036585,0.039795,-0.000732,0.511475,31.635881
60984045,-4.756098,0.853659,-1.158537,0.035645,-0.001953,0.512207,31.635881
60985082,-4.878049,0.670732,-0.914634,0.029785,-0.003906,0.506592,31.635881
60986143,-4.939024,0.609756,-0.975610,0.035156,-0.003174,0.512451,31.588821
60987197,-5.000000,0.609756,-0.975610,0.037354,0.003662,0.505615,31.588821
60988244,-4.878049,0.914634,-1.097561,0.032715,0.003662,0.510010,31.635881
60989285,-4.817073,0.853659,-1.097561,0.036377,0.001465,0.506592,31.635881
60990334,-4.878049,0.853659,-0.975610,0.041016,-0.000977,0.507568,31.730000
60991398,-4.878049,0.975610,-0.975610,0.038574,-0.002197,0.515625,31.588821
60992446,-4.817073,0.914634,-0.975610,0.034180,0.000000,0.512939,31.588821
60993491,-4.695122,0.670732,-1.036585,0.029785,0.007080,0.511963,31.682940
60994543,-4.695122,0.609756,-1.158537,0.029785,0.000732,0.512451,31.541763
60995593,-4.878049,0.853659,-1.158537,0.035156,-0.004883,0.503418,31.730000
60996641,-5.000000,0.914634,-1.097561,0.034668,0.001709,0.512695,31.682940
60997676,-4.939024,0.670732,-1.036585,0.038086,0.001465,0.516602,31.682940
60998711,-4.939024,0.609756,-1.341463,0.037109,-0.004883,0.520508,31.682940
60999737,-4.939024,0.548781,-1.280488,0.031494,-0.003662,0.514648,31.635881
61000778,-4.939024,0.548781,-1.097561,0.036133,-0.005859,0.510986,31.635881
61001805,-5.000000,0.731707,-0.975610,0.040771,-0.005127,0.509033,31.635881
61002841,-5.000000,0.914634,-0.914634,0.038330,0.000732,0.509033,31.541763
61003863,-4.817073,0.853659,-0.792683,0.037109,-0.005127,0.516602,31.588821
61004902,-4.878049,0.914634,-0.670732,0.033936,-0.000732,0.510498,31.682940
61005934,-4.939024,0.731707,-1.158537,0.033203,-0.001221,0.514160,31.588821
61006992,-4.939024,0.609756,-1.280488,0.031494,-0.001221,0.515137,31.635881
61008040,-4.878049,0.548781,-1.036585,0.034912,0.000977,0.514160,31.635881
61009078,-5.000000,0.792683,-0.853659,0.030762,0.001709,0.509277,31.635881
61010125,-4.878049,0.792683,-0.853659,0.033936,-0.001465,0.509277,31.588821
61011164,-4.756098,0.609756,-0.975610,0.033936,-0.007812,0.517090,31.682940
61012259,-4.817073,0.609756,-1.097561,0.034180,-0.004639,0.514893,31.635881
61013321,-4.878049,0.731707,-1.280488,0.035645,-0.000732,0.509766,31.541763
61014378,-5.000000,0.731707,-1.036585,0.035889,0.000244,0.507568,31.494705
61015420,-4.939024,0.914634,-0.975610,0.040039,-0.004639,0.509277,31.588821
61016469,-4.878049,0.853659,-0.853659,0.038330,-0.000977,0.507080,31.588821
61017514,-4.939024,0.609756,-0.914634,0.033203,0.000244,0.513428,31.682940
61018562,-4.939024,0.365854,-0.853659,0.031006,0.002686,0.520996,31.635881
61019612,-5.000000,0.426829,-1.158537,0.028809,-0.000488,0.509277,31.588821
61020654,-5.000000,0.853659,-1.341463,0.031982,-0.003418,0.506592,31.588821
61021686,-4.878049,0.853659,-1.341463,0.031494,0.001221,0.510986,31.682940
61022725,-4.756098,0.731707,-1.036585,0.034180,-0.002441,0.520264,31.635881
61023750,-4.695122,0.548781,-0.853659,0.033203,-0.010010,0.514160,31.730000
61024793,-4.756098,0.548781,-0.853659,0.037109,-0.005615,0.515137,31.541763
61025824,-4.817073,0.731707,-0.914634,0.033936,-0.004639,0.511475,31.635881
61026875,-4.878049,0.914634,-1.036585,0.027832,-0.004883,0.506836,31.588821
61027901,-4.817073,0.914634,-1.036585,0.031250,-0.001953,0.513184,31.682940
61028942,-4.878049,0.731707,-0.975610,0.035400,-0.004150,0.505859,31.588821
61029982,-4.756098,0.670732,-0.975610,0.038330,-0.001221,0.504395,31.635881
61031021,-4.817073,0.609756,-0.975610,0.033447,-0.006836,0.514648,31.635881
61032056,-4.878049,0.487805,-1.097561,0.035156,-0.003906,0.509521,31.635881
61033106,-4.939024,0.609756,-1.219512,0.036621,-0.003174,0.501221,31.682940
61034142,-4.939024,0.792683,-1.219512,0.035400,-0.003418,0.506592,31.588821
61035185,-4.939024,0.853659,-0.975610,0.035156,0.000244,0.516113,31.588821
61036232,-4.939024,0.670732,-0.914634,0.030273,-0.000244,0.510742,31.635881
61037274,-5.000000,0.792683,-0.975610,0.036865,-0.005371,0.510010,31.635881
61038311,-5.060976,0.914634,-0.914634,0.034424,-0.002197,0.513916,31.635881
61039370,-5.000000,0.609756,-0.853659,0.028320,-0.006836,0.516602,31.588821
61040413,-5.000000,0.487805,-1.036585,0.032471,-0.008057,0.511475,31.682940
61041472,-4.939024,0.609756,-1.097561,0.037354,0.001221,0.516357,31.588821
61042527,-4.878049,0.853659,-1.036585,0.029297,0.003174,0.510254,31.730000
61043574,-4.878049,0.914634,-0.914634,0.029053,-0.000244,0.505859,31.635881
61044624,-4.878049,0.853659,-1.036585,0.031982,-0.007812,0.514648,31.588821
61045711,-5.000000,0.731707,-0.975610,0.030518,0.002441,0.513672,31.682940
61046757,-4.878049,0.548781,-0.853659,0.034912,-0.003174,0.517578,31.635881
61047794,-4.878049,0.548781,-1.158537,0.036865,-0.003418,0.503906,31.635881
61048830,-4.817073,0.792683,-1.097561,0.038818,-0.003662,0.511475,31.635881
61049870,-4.817073,0.792683,-1.097561,0.038574,-0.005615,0.515381,31.588821
61050911,-4.878049,0.731707,-1.219512,0.037598,-0.002197,0.518311,31.588821
61051948,-5.000000,1.036585,-1.097561,0.036377,0.000732,0.516602,31.588821
61052983,-5.000000,0.853659,-1.158537,0.034912,-0.001953,0.514648,31.541763
61054017,-4.939024,0.548781,-1.158537,0.035645,-0.001221,0.517090,31.635881
61055057,-5.000000,0.365854,-1.036585,0.035889,-0.003662,0.514404,31.635881
61056093,-4.939024,0.426829,-1.219512,0.035645,-0.005127,0.506592,31.588821
61057141,-4.939024,0.548781,-1.158537,0.033203,-0.007080,0.510986,31.682940
61058186,-4.878049,0.792683,-1.097561,0.036377,-0.008789,0.506592,31.588821
61059215,-4.878049,1.036585,-0.975610,0.029785,-0.002441,0.503906,31.541763
61060251,-4.756098,0.914634,-0.853659,0.031494,0.001465,0.507812,31.541763
61061325,-4.756098,0.792683,-0.975610,0.035645,0.000732,0.509521,31.541763
61062401,-4.817073,0.548781,-1.097561,0.034180,-0.007324,0.516357,31.588821
61063452,-4.817073,0.670732,-1.036585,0.029541,-0.008545,0.510986,31.588821
61064498,-4.939024,0.853659,-0.975610,0.036865,-0.003418,0.513672,31.682940
61065555,-4.878049,0.853659,-1.280488,0.036377,-0.007080,0.511475,31.635881
61066600,-4.939024,0.670732,-1.219512,0.036377,-0.005615,0.516846,31.682940
61067640,-4.817073,0.304878,-1.219512,0.035400,-0.002197,0.512695,31.588821
61068689,-4.939024,0.487805,-1.219512,0.035400,0.000488,0.506592,31.682940
61069732,-4.878049,0.853659,-1.036585,0.036865,0.000732,0.508789,31.635881
61070767,-4.878049,1.036585,-1.036585,0.038818,-0.003174,0.518066,31.635881
61071808,-4.939024,1.036585,-1.097561,0.036133,-0.001709,0.510742,31.541763
61072843,-5.000000,0.792683,-0.975610,0.039062,0.000244,0.509033,31.494705
61073916,-5.000000,0.731707,-1.036585,0.037109,0.000244,0.510742,31.682940
61074972,-4.756098,0.609756,-1.036585,0.041016,0.000000,0.501709,31.635881
61076006,-4.634146,0.731707,-0.914634,0.038086,0.001221,0.506104,31.635881
61077068,-4.817073,0.731707,-0.914634,0.038574,0.003418,0.519775,31.730000
61078125,-5.060976,0.792683,-1.097561,0.035156,0.004150,0.520996,31.588821
61079154,-4.939024,0.914634,-1.036585,0.037354,-0.002441,0.507812,31.682940
61080247,-4.878049,0.670732,-0.792683,0.037598,-0.001465,0.514648,31.635881
61081320,-5.000000,0.548781,-0.853659,0.039307,-0.002930,0.521240,31.635881
61082359,-4.939024,0.548781,-1.097561,0.042969,-0.000732,0.513672,31.588821
61083399,-4.817073,0.670732,-0.975610,0.035156,0.000488,0.516602,31.682940
61084437,-4.756098,0.792683,-0.853659,0.028320,0.000732,0.506592,31.682940
61085474,-4.878049,0.731707,-0.853659,0.033203,-0.004395,0.501709,31.588821
61086510,-5.060976,0.609756,-0.975610,0.035645,-0.002197,0.502930,31.635881
61087552,-5.060976,0.548781,-1.219512,0.039307,-0.004883,0.509277,31.730000
61088593,-4.939024,0.731707,-1.097561,0.039307,-0.002441,0.514404,31.682940
61089639,-4.939024,0.792683,-0.975610,0.037109,-0.003662,0.511475,31.588821
61090683,-5.000000,0.853659,-1.036585,0.031006,-0.004883,0.508545,31.682940
61091710,-4.878049,0.670732,-1.097561,0.032715,-0.005127,0.513916,31.635881
61092741,-4.878049,0.670732,-0.914634,0.028809,-0.003174,0.512939,31.635881
61093793,-4.878049,0.670732,-0.731707,0.031982,-0.002686,0.507080,31.635881
61094828,-5.060976,0.670732,-0.731707,0.032715,-0.002686,0.502441,31.588821
61095866,-5.060976,0.731707,-1.158537,0.035400,-0.004395,0.512207,31.588821
61096900,-4.878049,0.792683,-1.158537,0.038086,-0.007812,0.515137,31.682940
61097979,-4.939024,0.670732,-1.219512,0.035645,-0.004639,0.509033,31.635881
61099040,-4.878049,0.609756,-1.158537,0.033691,-0.002686,0.503906,31.635881
61100096,-4.756098,0.853659,-1.036585,0.036377,0.003662,0.509766,31.588821
61101141,-4.878049,0.731707,-0.853659,0.037354,0.000000,0.510498,31.588821
61102155,-4.939024,0.609756,-0.914634,0.036865,-0.001221,0.510986,31.682940
61103188,-5.060976,0.853659,-0.853659,0.031006,0.001465,0.514160,31.588821
61104213,-4.878049,0.914634,-0.914634,0.035400,0.001953,0.507568,31.635881
61105250,-4.817073,0.914634,-0.975610,0.034668,-0.001221,0.510254,31.635881
61106281,-4.817073,0.670732,-1.097561,0.040039,0.000000,0.510010,31.730000
61107289,-4.878049,0.609756,-1.036585,0.040039,0.003174,0.515381,31.635881
61108323,-4.817073,0.548781,-1.036585,0.035156,0.001221,0.510742,31.682940
61109354,-4.939024,0.487805,-1.097561,0.031982,0.000000,0.511719,31.682940
61110372,-5.000000,0.670732,-1.097561,0.034668,-0.001953,0.507324,31.588821
61111406,-5.000000,0.914634,-0.853659,0.037354,0.001465,0.501221,31.682940
61112438,-4.939024,0.914634,-0.853659,0.041016,-0.002930,0.506836,31.682940
61113478,-4.817073,0.731707,-0.975610,0.038818,-0.002441,0.512207,31.588821
61114534,-5.000000,0.609756,-0.975610,0.038330,-0.003418,0.515381,31.730000
61115561,-5.000000,0.548781,-0.975610,0.036133,-0.004883,0.516113,31.730000
61116599,-4.939024,0.609756,-0.975610,0.037598,0.000488,0.513184,31.588821
61117626,-4.939024,0.670732,-0.853659,0.037109,-0.001709,0.515381,31.588821
61118669,-4.939024,0.548781,-0.975610,0.035156,-0.000732,0.519287,31.588821
61119692,-4.878049,0.609756,-1.158537,0.039307,0.000732,0.513916,31.588821
61120730,-4.817073,0.670732,-1.341463,0.033447,-0.003662,0.511475,31.635881
61121760,-4.634146,0.731707,-1.341463,0.032471,0.002441,0.513428,31.635881
61122812,-4.817073,0.853659,-1.097561,0.029785,0.000000,0.513184,31.635881
61123821,-4.695122,0.853659,-1.158537,0.037598,-0.003906,0.511963,31.682940
61124867,-4.817073,0.792683,-1.097561,0.034180,0.000977,0.511230,31.682940
61125894,-4.878049,0.731707,-0.914634,0.036621,0.000244,0.518311,31.682940
61126933,-4.878049,0.609756,-0.853659,0.032959,-0.001465,0.517090,31.588821
61127980,-4.878049,0.609756,-1.097561,0.036377,-0.000488,0.509521,31.635881
61129039,-4.878049,0.670732,-1.219512,0.038086,0.000977,0.510498,31.635881
61130076,-4.878049,0.670732,-1.219512,0.037598,0.003174,0.517090,31.682940
61131122,-4.817073,0.548781,-1.036585,0.039795,0.003418,0.512207,31.588821
61132150,-4.817073,0.731707,-1.158537,0.038330,0.000732,0.513672,31.588821
61133180,-4.939024,1.036585,-1.036585,0.040039,0.000244,0.517578,31.682940
61134211,-4.878049,0.975610,-0.853659,0.037109,-0.000732,0.513184,31.635881
61135233,-4.756098,0.548781,-0.792683,0.037842,-0.005371,0.508545,31.635881
61136279,-4.878049,0.548781,-0.975610,0.035889,-0.006104,0.508545,31.635881
61137303,-4.939024,0.853659,-1.280488,0.037109,-0.004395,0.510742,31.635881
61138332,-4.878049,0.792683,-1.097561,0.041016,-0.000732,0.513916,31.682940
61139357,-4.817073,0.792683,-1.036585,0.033447,0.002441,0.518555,31.588821
61140410,-4.817073,0.792683,-1.036585,0.034424,0.007080,0.500244,31.682940
61141446,-4.878049,0.609756,-0.975610,0.031250,0.003418,0.504150,31.588821
61142480,-4.939024,0.609756,-0.853659,0.037598,0.000732,0.515381,31.682940
61143527,-4.939024,0.548781,-0.914634,0.039062,0.001221,0.517090,31.635881
61144620,-4.756098,0.670732,-1.097561,0.039795,0.000732,0.510986,31.588821
61145688,-4.878049,0.670732,-1.036585,0.034424,0.002197,0.517090,31.588821
61146725,-4.939024,0.731707,-1.219512,0.032959,-0.000488,0.517090,31.635881
61147758,-4.878049,0.670732,-1.036585,0.029541,-0.003906,0.513672,31.635881
61148779,-4.878049,0.548781,-0.853659,0.035400,-0.008545,0.510986,31.635881
61149814,-4.939024,0.731707,-1.097561,0.037842,-0.005127,0.507324,31.682940
61150831,-5.000000,0.853659,-1.097561,0.036621,0.000244,0.510742,31.588821
61151872,-4.939024,0.914634,-1.097561,0.034424,0.001221,0.513672,31.588821
61152894,-4.878049,0.731707,-0.975610,0.031738,-0.003174,0.514160,31.682940
61153927,-4.817073,0.670732,-0.853659,0.033447,-0.003662,0.511719,31.588821
61154949,-4.756098,0.609756,-0.914634,0.031250,-0.010254,0.507812,31.635881
